ACC_X,ACC_Y,ACC_Z,ECG,EDA,Temp,Resp,ACC_X_wrist,ACC_Y_wrist,ACC_Z_wrist,BVP,EDA_wrist,Temp_wrist,Stress_Class,Task,SessionPhase,Activity,Subject_ID
0.8805811047633885,0.4515655210542932,0.4387725964885871,0.4833951666134751,0.3326042866750093,0.8373625436616476,0.5360113980346455,0.7616804656546851,0.2081545505867623,0.2481713698108389,0.651410317935467,0.0374534142303257,0.8549802675283832,1,4,0,0,S7
0.880341750891928,0.5071903186605167,0.4095955082725785,0.4607353718569441,0.3350677137696508,0.8381197493238178,0.5672371492142928,0.7648058636165197,0.2033659073863073,0.2637198785600866,0.5090841598438423,0.0315856239891788,0.8541902955109224,1,4,0,0,S7
0.8789198897870094,0.4372781332105385,0.3780774693097202,0.358634015134638,0.3411474636322689,0.8387909717507638,0.5657119233123383,0.7858980002982805,0.2194848236406414,0.2707998311966272,0.5000856862129427,0.0756752219463759,0.8545277074643056,1,4,0,0,S7
0.87970729553543,0.4836237765905157,0.3812667967578637,0.4422466204089896,0.3460447668318474,0.8391930375611777,0.6145967098316076,0.7993142115800964,0.2285447813534585,0.2644461001219345,0.5048537713097813,0.0431385859627306,0.8556526316981439,1,6,0,0,S7
0.87899106316799,0.4940827097168022,0.3710303518891718,0.5053145030315634,0.3463578511368283,0.8394159358648043,0.5304047213668875,0.803205487691199,0.2258150320003311,0.2691393789554261,0.6046488577419775,0.049144262803595,0.8557671585229905,1,6,0,0,S7
0.8745529088611593,0.5077542805560675,0.3464514001392412,0.5413064251563379,0.3467453207317971,0.8395297694657364,0.4877078817794254,0.8043131940349173,0.2307237755985683,0.2692393400837734,0.5237377599371611,0.0649830861035233,0.8550004703286392,1,6,0,0,S7
0.879140150142943,0.5138358732056076,0.3797646860218097,0.4148881099052084,0.3496701039383869,0.8404329987919426,0.6011202153462609,0.7909416483999636,0.220789041799495,0.2684596172663612,0.4903254543841695,0.0304508047923878,0.8529582207660866,1,6,0,0,S7
0.8754206382425657,0.5793103630423235,0.3707392803360202,0.5267767374976571,0.3493840452516026,0.8403949906729888,0.5249065031458037,0.791708431526159,0.2240328713654912,0.2709108608901424,0.5302997655977338,0.0323130706942237,0.8539717657952585,1,6,0,0,S7
0.8787800689447159,0.5271892151076949,0.3807303029279607,0.5581712914545943,0.3526918260811935,0.8410123722388317,0.5433979817179214,0.7895208622403266,0.2207689676680095,0.269211990823523,0.3801056885461715,0.0164052042537963,0.8530138080708191,1,6,0,0,S7
0.8781863212381924,0.5498718972149174,0.3857525031642284,0.4777263049199368,0.3532252467570602,0.8410839057123961,0.5716672706330131,0.7868892503787188,0.2205826734773848,0.2608465240461193,0.6450971430568657,0.0210847002164283,0.8530750459658638,1,6,0,0,S7
0.8779647437037422,0.4824699274215029,0.3640263171725277,0.5479137167502183,0.3528382973695658,0.8412521524422196,0.5445895482142108,0.7938230007003942,0.2264010423258007,0.2630373120552037,0.6150217478281258,0.0153875877942681,0.8520288936928215,1,6,0,0,S7
0.8804887958430929,0.4145553405659996,0.3762516455696572,0.4892421010866008,0.3526483711060496,0.8414959385201268,0.5320434502856224,0.7869779453615858,0.2238215435694726,0.250425363798777,0.5493426311337685,0.0081337465003848,0.8522140069079246,1,6,0,0,S7
0.8756825816288786,0.5080045885462644,0.3511826105756283,0.5163756442128112,0.352971073325954,0.8413242104945902,0.5051295209889042,0.7984943219880464,0.2285388570606981,0.2666609476248338,0.6214967592901364,0.0,0.852579043065459,1,6,0,0,S7
0.8738165832745838,0.5012659112592218,0.3373132125290013,0.5235967420960527,0.352519319555012,0.841350057923038,0.5258147061203077,0.8026170207850821,0.2288623248253873,0.2686197671994622,0.5770886576794978,0.0143990715851064,0.8520258524490089,1,6,0,0,S7
0.8732688346251571,0.4969198815806642,0.3353238218550241,0.5449488759881785,0.3524243242737354,0.8414293647007296,0.5245807289711717,0.8037031115163611,0.2274537801901143,0.2716124911525506,0.5072877934612451,0.0062525200094771,0.8508473115271024,1,6,0,0,S7
0.8767556767024614,0.4226532075532065,0.351003630747033,0.5139054887644408,0.3533160989083728,0.8414521123453232,0.6452129779283592,0.8019559122383613,0.2335328781464025,0.2526069891295163,0.4512724267388256,0.0205950026673483,0.8504341335513036,1,6,0,2,S7
0.8721152139521513,0.4775336531024022,0.326096533425616,0.5002351478768993,0.3548489357066264,0.8413168187023216,0.462926334676537,0.8035122707745196,0.2287926619797974,0.2603606526945684,0.6258368717238615,0.0199446378381746,0.8494528793828017,1,6,0,0,S7
0.871723631256831,0.4377160611404319,0.3283945481286595,0.5477034708386181,0.3552809153735354,0.8411856740007869,0.6000233372084899,0.825656041366976,0.2540100435071214,0.260993441964932,0.5229986637830248,0.0319722539114868,0.8500087218637082,1,6,0,2,S7
0.8752456533580149,0.4022013883801852,0.3279310350535425,0.5057691681742794,0.3559902538553272,0.8412483373236294,0.6483042093156675,0.8074717324350944,0.2195075258055644,0.2501545046755769,0.4779271481852776,0.0341194689744326,0.8497283815838585,1,6,0,2,S7
0.847230958436517,0.51136766701475,0.2600507790312121,0.4712603466659112,0.3568527741932826,0.8413738547252435,0.6204758172467449,0.9355984985750554,0.379751223261162,0.3721636092118286,0.6104512082382656,0.041179754712664,0.8490763243288701,1,6,0,2,S7
0.8464051543340646,0.4913828651835275,0.2569982023560397,0.4804234301936092,0.3566607598302391,0.8415088622343507,0.5151637656875147,0.8450951184342846,0.6460206323724871,0.6314154244293932,0.5112091935575727,0.0991667472045389,0.8490087475605976,1,6,0,2,S7
0.8607984846346317,0.4328172476819611,0.2860517511861351,0.64767470656435,0.3576724096650759,0.8412266865256306,0.4678902927981804,0.7498624894536012,0.6433801830573073,0.7447516824206465,0.6126848116860338,0.1339976850840691,0.8507890855235628,1,6,0,2,S7
0.8570747094041749,0.4794227319659089,0.2833121639347084,0.4164184460572224,0.3582240894259461,0.8410333077020948,0.6573720456441863,0.6463059307963981,0.6502582161194481,0.8152854293330587,0.4000584742974795,0.1350216771966397,0.8512921773542725,1,6,0,2,S7
0.8628738322133214,0.5200057320051282,0.2903873056085677,0.4516526561446172,0.3575399290535961,0.8407559962695771,0.5029317415443182,0.594356417783368,0.6383001129750341,0.8293361505549732,0.4928706506979577,0.144268546319625,0.8494304085947525,1,6,0,0,S7
0.8662862575938276,0.4702505091225876,0.2995686314183298,0.51201910758993,0.359376665936741,0.8393598536215299,0.4789236502220612,0.8085619982162762,0.666900624481978,0.6731659794217242,0.3949234205828527,0.1732366469621767,0.8470781154390125,1,6,0,2,S7
0.8688061662809322,0.4788377391552185,0.3177829064417454,0.50751996481998,0.3612447413030332,0.8385615877455337,0.5627541755575325,0.9174266186331848,0.6399876680280762,0.5475316585049239,0.5868532238449249,0.1708837692646566,0.8473331167126399,1,6,0,0,S7
0.8753957209169069,0.4305909513405531,0.3409772440702203,0.4928010693556626,0.3606452399735679,0.8386368886487058,0.5414369437983364,0.7417260103813094,0.6441284484810221,0.7454750509642005,0.5912779022549987,0.1727521046892866,0.8468008872313416,1,6,0,2,S7
0.8773813643654729,0.5496887878222859,0.3770840844168857,0.6439688383085749,0.3609294900679241,0.8387792879500813,0.5117332749501053,0.6885739218849821,0.6061971405835126,0.8087104642982926,0.4971018549358777,0.1662148474934692,0.8473397559921653,1,6,0,0,S7
0.8791273102457022,0.503247439473319,0.3931259351543576,0.4103716889470092,0.3618665999331992,0.83875859093173,0.6356293819514698,0.6903389218268718,0.6120451753263465,0.8036218631984384,0.5408651922511791,0.1649915816654021,0.8467508482138778,1,6,0,0,S7
0.878887312962703,0.5307390700335173,0.402297505924465,0.5951680656519737,0.361496180798707,0.8394178434240993,0.5833799529977455,0.6602713337145707,0.6154254002446495,0.8204932857694334,0.5335710126408812,0.1599305156850956,0.8442842182064059,1,6,0,0,S7
0.8794436370658477,0.5283271113629682,0.3996254967277443,0.3485920273182057,0.3620068824782484,0.8395427885579251,0.609274964083541,0.6503103918295039,0.6153037728749626,0.8254947217366855,0.5499359024081655,0.1649877224906098,0.844224404313059,1,6,0,0,S7
0.8240658762290558,0.399411434887388,0.2228120093560239,0.475902760487952,0.3333084407404675,0.8329950912776661,0.4866771682142091,0.9149855802410268,0.3552303172202912,0.2740561660851751,0.4969228560851512,0.1364765865517777,0.8051041674103563,1,4,2,1,S7
0.847636342741491,0.3597897516787075,0.2523084773437226,0.4549591338623198,0.3323346982913024,0.8323365064310501,0.4531728617694107,0.928681027105616,0.3326083131637585,0.4025064576682423,0.5028093197763177,0.1430087471542113,0.803053528990576,1,4,2,1,S7
0.8439303037633579,0.4325366709987889,0.2796298293344086,0.4162218781112758,0.333170095903364,0.8329386275225326,0.7150284949758656,0.8837954894327994,0.3219838187647749,0.2706546945856699,0.559871653253946,0.1253189405174132,0.804663743630453,1,4,2,1,S7
0.8280635584716242,0.552027417272114,0.2104677923328879,0.4918000108583276,0.3341941719476379,0.8333061188207238,0.4989818415230144,0.9224976270308628,0.3350314254647671,0.3633884008265165,0.4880294997527055,0.1382365576922508,0.8044889303382229,1,4,2,2,S7
0.8799882686747809,0.3293560663179825,0.381624696320326,0.4512979916015424,0.3367756145124118,0.8342121141079081,0.6105965727839682,0.8868184115247156,0.3066235188489952,0.2876385559587331,0.5757566827636883,0.107087282419528,0.8047295179564887,1,4,2,2,S7
0.8748438508999454,0.3615305622869057,0.3380900472605577,0.5185919019099962,0.3354708868264062,0.8362004585391034,0.4968408055206528,0.8853462582806773,0.3113109916100408,0.2726444968075116,0.4529751338979493,0.1026584371234644,0.804444937052067,1,4,2,2,S7
0.8716500663132589,0.3470490305788433,0.32657321531866,0.4739531971210425,0.3364691493571302,0.8367445898280164,0.6345548651384156,0.8984527431004516,0.3204014951575019,0.2945751781223962,0.5363624586039685,0.1124273336077949,0.8054142010322828,1,4,2,1,S7
0.8755166383584758,0.4324773234979639,0.3367226434921035,0.5058752348283916,0.3372848702495882,0.8369221359094031,0.5669245914769717,0.8884483627501484,0.3131637061379061,0.2875963085049922,0.5243322957262165,0.1125140217735578,0.8053273034227174,1,4,2,2,S7
0.8672589833995658,0.3794812407741971,0.3086906705191926,0.5503500827147682,0.336899491258267,0.8368640984178514,0.5495193998764555,0.8904923964044142,0.3129385570243354,0.2899149787349331,0.5392759837851895,0.1093573645343393,0.803454743089299,1,4,2,2,S7
0.8681178557705337,0.4109659222776196,0.3071160686691805,0.5116253020034688,0.3367516331963621,0.8372832845729385,0.566035774281274,0.8951089235914375,0.314088806410301,0.29497119515808,0.5243307209628486,0.1115404116701204,0.8046110310488539,1,4,2,2,S7
0.8724874819292816,0.4328558198218319,0.3291380610857773,0.5971808995020055,0.3374268588024427,0.8380389164986901,0.5120558522004333,0.8967635861594457,0.3125170433031993,0.3006762532584915,0.5685840474795193,0.1202464905869397,0.8031328695097935,1,4,2,2,S7
0.8758753575344211,0.4025049844473249,0.3397438288962325,0.4592433530645192,0.337841170623634,0.8381476950674905,0.5626841039983642,0.8953126384722956,0.3156703113143815,0.2979345397030758,0.4366068548399662,0.116421148097384,0.8032796530246831,1,4,2,2,S7
0.8699521759774024,0.4472934063245073,0.314366191599929,0.5708201406614806,0.3416580091624832,0.8408353984252334,0.4894682084156505,0.8957414077979481,0.313731284913601,0.3014165521199232,0.4734320711676614,0.1247690978912453,0.8042608945819684,1,4,2,2,S7
0.8705567744987291,0.3541085165653883,0.317082517569817,0.5199876050090484,0.3424782927029014,0.8420049707180111,0.4892137987172285,0.9022385430656344,0.3268748467360401,0.293246258912857,0.510901873980551,0.1209010226845505,0.8046913861219175,1,7,2,1,S7
0.8757216248100061,0.3827633310889141,0.33674050493773,0.4359930175091816,0.3424492123919633,0.842134493994145,0.6153043191794798,0.9006943796455864,0.3191144227573113,0.2901285609127778,0.5287738658030512,0.1129726283851601,0.8069785760693126,1,7,2,2,S7
0.8706210208799132,0.3820532564982436,0.3252656684448061,0.5897919705884125,0.3427487423802471,0.8427062372038537,0.6177127019045634,0.902427447246354,0.3238530520279975,0.2989058226163278,0.5645567722541424,0.118187350071025,0.8066738016738674,1,7,2,2,S7
0.8763195276408445,0.3973364085877132,0.3410509576225055,0.4112895132483224,0.342995661648364,0.8428838786632055,0.7369799986740472,0.8923784047515634,0.319499458680659,0.2817822238018978,0.5212609138090621,0.1115235467323076,0.8072925707085076,1,7,2,2,S7
0.87497255604594,0.4518907079249592,0.3383522584986959,0.5794062023039388,0.3477090589602101,0.8434986850239998,0.4773360536243378,0.8966923856410854,0.3184572655875672,0.2954021989919598,0.5593637088830041,0.1462292196915277,0.8065923611619453,1,7,2,0,S7
0.8728914940147485,0.4327069926114133,0.3250968880604666,0.466663248039708,0.3464374115364623,0.8440436747145956,0.5881120896378838,0.8970242977695839,0.3180988165144598,0.294031796878009,0.5203418834536886,0.127737877259067,0.8079920571009226,1,7,2,2,S7
0.8636629036695818,0.4191274068531829,0.2965341418376366,0.5220721013478392,0.3461750391458366,0.844240916345704,0.6286761344671005,0.903286010500329,0.3248016803208344,0.2972587655749074,0.520812144805342,0.1217161341776141,0.8087770126682124,1,7,2,2,S7
0.8665661488035701,0.4365036998690988,0.304891290195546,0.4795505077487396,0.3457261690310654,0.8444814595728096,0.6315531046517171,0.8992925222035972,0.3215381730388744,0.2916818842498085,0.5187811104563234,0.1194646122652887,0.8090531698319899,1,7,2,2,S7
0.8615231680058121,0.3942261656350029,0.2894220434474711,0.4898584429546483,0.345765131298582,0.8443455459730372,0.6458548957284336,0.9034829810488858,0.3265605071315419,0.2956622747428611,0.5396551196310687,0.1170445942474158,0.8080166322066403,1,7,2,1,S7
0.8779063919528763,0.3682539981672015,0.4363035183835875,0.4053168243591208,0.3264508572242331,0.8449947837791077,0.6004675993810236,0.7966385914584959,0.5314212949316144,0.7481480729705036,0.5386887471697598,0.1744217605326042,0.8763719936747173,0,4,2,0,S7
0.8773215493029795,0.3743696091030257,0.4444948009304663,0.5580202584076482,0.3265104336187642,0.8449982173858386,0.5061578003155748,0.7888746671627364,0.5316906028639773,0.7547733534039356,0.5279542678592273,0.1743858473304982,0.874156042571106,0,4,2,0,S7
0.8771186119138925,0.366309917990547,0.4389735761037138,0.5315857957177681,0.3269194233960241,0.844892538600893,0.5847754504319878,0.7872136170570179,0.5306889045029827,0.7553347344527104,0.6892286070597409,0.1757983589037993,0.8750917339208644,0,4,2,0,S7
0.8779100265559343,0.3605339795634534,0.4395714539661015,0.4502101382263934,0.3262097963964286,0.8449232979945256,0.6275553027199615,0.8051666647709284,0.5303244589304518,0.7421604048376469,0.3954263233944461,0.1737219463862553,0.8738146901520251,0,4,2,0,S7
0.8773986996108685,0.3653604680757137,0.4439840788667695,0.4899079449264977,0.3255458571078662,0.8437542025915717,0.5226653858034751,0.811296280540653,0.5306472995718943,0.7342081796848546,0.5574548248440735,0.1681242578010765,0.8719318022605078,0,4,2,0,S7
0.8772379571730377,0.3636243599166505,0.4431959705443734,0.4469664933132268,0.3260673430536398,0.8429220298491064,0.5578647868264828,0.8049035486367673,0.5307442888865794,0.7422494916776815,0.563775299648522,0.1651908584724144,0.8699635787284252,0,4,2,0,S7
0.8776324385632008,0.366320131137241,0.4403481993170716,0.6107011503522974,0.3260106642614035,0.8427158703782939,0.5108990118368616,0.8043415926200341,0.5303855979518037,0.7424465002504845,0.478308439397093,0.1655514980235467,0.8702472176402349,0,4,2,0,S7
0.8778220793555218,0.3579888684211445,0.4325495028643668,0.4509295413603639,0.3262555292693856,0.8425132398921771,0.6194321443137576,0.8046224164335612,0.5307816980640104,0.742446314425598,0.582740947045303,0.1629741322708602,0.8693715875699739,0,4,2,0,S7
0.87914881761408,0.3652939918727234,0.4210293765971937,0.5073020035037783,0.3258097297771418,0.8417735360865389,0.5930077762985423,0.7937203841531619,0.5311065818430796,0.7508425039342184,0.5019065922576729,0.1610435035160875,0.8682646424269596,0,4,2,0,S7
0.8794824600301925,0.3601789374695874,0.4235054742096412,0.4014925521727363,0.3260545773858799,0.8418232756951575,0.6251212002486808,0.8151488530177541,0.5308044922469667,0.7333425515458882,0.6672146062581692,0.1599885527785084,0.8665347278147936,0,4,2,0,S7
0.877818199616172,0.3630892036110923,0.4415555945712527,0.5046758513044802,0.3254350662107972,0.8416821163073237,0.5199543901857078,0.8097461727204697,0.5308234342771726,0.7356681303541279,0.5391299318346328,0.1578268130740622,0.8629882622176339,0,4,2,0,S7
0.8778119793932352,0.3602265330601857,0.4379413045288148,0.5747434861334528,0.3251337874758536,0.8418332903814566,0.5326415930099873,0.8075346244521221,0.5310721484045824,0.7383784883332843,0.5199617852720697,0.1584150990941647,0.863086789300622,0,4,2,0,S7
0.8787094026774538,0.3557185965861351,0.4334495798346045,0.4779481830640235,0.3249070128020708,0.841810304291951,0.6066978450086404,0.8072516477371239,0.5306974232194087,0.7394300987150537,0.4888256687410769,0.1571676076547264,0.8611324699698362,0,4,2,0,S7
0.8774890878831456,0.3598150119568354,0.4400852567961762,0.4670991253496874,0.324684386649963,0.8417618999748393,0.5585563383103513,0.804173556040945,0.5314278020893201,0.7425134328222326,0.5457088672205669,0.1561251356849946,0.861150550094318,0,4,2,0,S7
0.8783631523057762,0.3629996350139784,0.4437104209784908,0.5986262536209648,0.3247385533274932,0.841671863176113,0.5091736272446944,0.8035598545532303,0.5304167445688541,0.7446682212046865,0.5188286515677104,0.1570566654432435,0.859944760199854,0,4,2,0,S7
0.8783713365101565,0.3597751141491875,0.4270988620766266,0.5060391215423335,0.3247126510756314,0.8416865990716673,0.5919616011683081,0.7420986944988618,0.5392137300698223,0.7894002783720666,0.6378435763844945,0.1577613955118216,0.8604531755287768,0,4,2,0,S7
0.8784430039100357,0.3701919359816007,0.4314217564549234,0.5267115589785745,0.3252165308523902,0.8427058556919947,0.5250691089583601,0.7481054725605109,0.536593204140417,0.7849114418792049,0.514489228120826,0.1540784228753356,0.8581556436590516,0,4,2,0,S7
0.8797064929315346,0.3618713613352798,0.4311286977534542,0.546313074132551,0.325104707484609,0.84255162952299,0.5155042647174944,0.7481829136487617,0.5406618561383277,0.7844441204520722,0.4884769013088509,0.1532740911608049,0.8585063877410897,0,4,2,0,S7
0.8529908801467434,0.445135650138952,0.2615074011159262,0.6080191787272248,0.3259976631360883,0.8426139590229555,0.5610141814045861,0.8707640634981053,0.6405658914135408,0.5358803550869214,0.7408833561199634,0.1454809214598856,0.8545307027507509,0,4,2,2,S7
0.875692491718209,0.3471868482820713,0.3863583725470782,0.3504326464971209,0.3273311705527754,0.8429501663487081,0.6280233603702696,0.719522572476009,0.6207483704723535,0.7710428398989017,0.4122823911481327,0.1415302320167239,0.8554187523483066,0,4,2,2,S7
0.8767568054755814,0.3653033432225703,0.4621696011069924,0.5182427405688175,0.3279047593652501,0.8430991944186341,0.5430666962627382,0.7188160012437468,0.5353759167168463,0.8147462497024518,0.2691840553397646,0.1525807917738167,0.8547432188534768,0,4,2,0,S7
0.8791535699960769,0.3694445480962165,0.4343624450257075,0.5717473063896565,0.3278333708584796,0.8425445238646159,0.4966150279089701,0.7234710242753517,0.5391822054871387,0.8022477468017328,0.4944127700147436,0.1540885489425906,0.8549948507533562,0,4,2,0,S7
0.8794345996818008,0.3597012290504429,0.4147525883413441,0.5097959790099288,0.3277919089873534,0.842672425715349,0.5972411112284272,0.6897754983090212,0.5331157426211781,0.8242937524463321,0.5465763584950052,0.1539119933915655,0.8551483089414252,0,4,2,0,S7
0.8803420290423085,0.3513088753210865,0.4212172288793723,0.4499404701521436,0.3280645042804245,0.8427311785416366,0.5841525391036317,0.6815303539350922,0.5345712416057652,0.826161736814342,0.5257191596883878,0.1565490160876132,0.8548028228540591,0,4,2,0,S7
0.8797390473064627,0.3496097722573587,0.4186587343443194,0.5165095901795399,0.3282879590358263,0.8426776715034103,0.5392234478574749,0.691363430377622,0.5276226925598533,0.8234931708359161,0.5019468590727088,0.1554857196033877,0.8562211910645354,0,4,2,2,S7
0.8818555519551139,0.3421021762481631,0.4290519492139906,0.5734569336953722,0.3291552451551561,0.8426218277050478,0.5017764879410563,0.684817496713853,0.5374719708772172,0.8244213197485917,0.4710035388619376,0.1559561540922368,0.8538332694818922,0,4,2,0,S7
0.8690963448409904,0.4539093644725919,0.3303327394400366,0.4457252562070993,0.3323287844863335,0.8427048065343824,0.6713574699669115,0.7155127524078544,0.519709727730026,0.8102451695955104,0.5039642436531135,0.1526389551180609,0.8537247684404188,0,4,2,2,S7
0.7305938994762643,0.5232799552574013,0.1015295015454541,0.534498566056804,0.334162284218789,0.8445186569790631,0.6790394523040828,0.8804701593662831,0.7057406954839335,0.4009067147293237,0.2211497037274195,0.1437815173689378,0.8532772525160851,0,4,2,1,S7
0.7180034064025556,0.5581935502470006,0.0866049058454047,0.4297808512137919,0.3320411417024265,0.8462659812933289,0.6527111955344148,0.8870011449694446,0.6939363204963482,0.4963276649357784,0.3781999527594409,0.1431872957941575,0.8585962202154886,0,4,2,1,S7
0.8651520660449046,0.5423655512275432,0.2434460587182126,0.4586770924494429,0.3319552638699021,0.8462059885534995,0.7260231571739306,0.8583637934417048,0.693510617561433,0.5700603800195645,0.4292190243705135,0.1418159948844409,0.857318405686292,0,4,2,0,S7
0.8792281415456759,0.6584783137393055,0.303109588397724,0.5062938125032631,0.3361235668774417,0.8446600548118088,0.3618019556260782,0.3965599498790437,0.039474806694055,0.5289466419799049,0.5517957370190029,0.1378778302050749,0.8592751558536775,0,4,2,0,S7
0.8441349382577439,0.5982221716131353,0.2769412697437963,0.4967001920090058,0.3359584356726161,0.844236004380519,0.438528192968427,0.4148283923033368,0.0457950515589444,0.5273201254980333,0.6129333262644058,0.1429753901021704,0.8595771593064905,0,4,2,0,S7
0.856451774995025,0.4971020040640074,0.5160287225202638,0.3405305449134674,0.8814651427575464,0.8509204259732509,0.6145156684930861,0.576424917057875,0.578398161842181,0.8695665181424233,0.5387153602044258,0.9612529226223075,0.7783211349392056,2,4,1,0,S7
0.8652607777783862,0.5041224537762106,0.4930654824797599,0.4347958521616687,0.8803585540074137,0.8512526274244842,0.5296123578534058,0.564646576274759,0.5768128291359493,0.878185388096894,0.5472592308391524,0.9645379473789666,0.7783576710563167,2,4,1,0,S7
0.86111954047522,0.4736758794881021,0.5069362240103764,0.7573527591888369,0.878924751429684,0.8517010946147502,0.5051751120954272,0.5604179663246764,0.5778848997695127,0.8783147186256041,0.5362948781048081,0.9689694540037002,0.7782944077721747,2,4,1,0,S7
0.8605605484460467,0.4770994626232166,0.5048900397385349,0.3289940942628635,0.8793864584629664,0.8520654384401048,0.6286077098421519,0.5628918594480679,0.5780152076545109,0.8789813395136132,0.50471055372061,0.9671016149269112,0.778727624656317,2,4,1,0,S7
0.8574677863046549,0.481812716501701,0.5137651131558599,0.3607306924689767,0.8819555687424004,0.8535684520976572,0.6254714372518154,0.5364372138632063,0.577508520288049,0.8897502251270086,0.5105190693710294,0.9772247597293512,0.7790092245999379,2,4,1,0,S7
0.8605338353046821,0.4983988773966689,0.5065073193969195,0.2058450832060839,0.8849077840489074,0.8536397471263096,0.5313306190438097,0.5320873274157114,0.5773565354842278,0.8905003145507997,0.5470165839470376,0.9748576309737024,0.7789883416628957,2,4,1,0,S7
0.8568382336192173,0.4734169301288324,0.5157388814117284,0.605472954103025,0.8877985337992959,0.8535585804783051,0.6182151710035962,0.532515520873297,0.5780432673721257,0.8908097685564735,0.5303500338096343,0.974942107855588,0.7790161929444708,2,4,1,0,S7
0.8589522033460046,0.4851621562949783,0.513142362062218,0.5300167051760943,0.8865669494875124,0.8535158511500961,0.4769441875789879,0.5157497918613423,0.5788448141871096,0.8962355478126038,0.5401764722078027,0.9802930715900544,0.7790798432107573,2,4,1,0,S7
0.8576470797439688,0.4686939602407338,0.5126149938706808,0.8108701719864584,0.8897489362614734,0.853349035089744,0.5366164801714813,0.5181245806797445,0.5788683099183862,0.8974936921637848,0.5189717058759596,0.9756684924940242,0.7785146844429156,2,4,1,0,S7
0.8609606464382457,0.4549297826665793,0.5039054644093217,0.4365037685566519,0.8820963030983191,0.8531647648618421,0.5408867682977495,0.5052226388975414,0.580642899829972,0.8996816901061075,0.5462218564010185,0.9829476598241706,0.779009479648761,2,4,1,0,S7
0.8561926702496273,0.4483613187007075,0.5210452382896726,0.6841290250615746,0.8798611174433424,0.8530052452157935,0.5073603648311364,0.5107045448135741,0.5804693077284213,0.897946121969986,0.4992789350677128,0.9773048535021684,0.7796954461133135,2,4,1,0,S7
0.8634849653277962,0.4408187964521159,0.5005800245622245,0.7524442288294468,0.8841158770935829,0.8526351787125539,0.4616175816317419,0.5157111087647805,0.5814982405969865,0.8967692567901975,0.5081420460035705,0.9762053415906942,0.7796888284452038,2,4,1,0,S7
0.8631829806001952,0.4374216996470679,0.497115430207913,0.4091571045982678,0.8843787915536361,0.8525305967742028,0.5895199415310274,0.5126242302784119,0.5799108320588859,0.8975560439883044,0.5108297373018007,0.9782990713999696,0.7805509390181816,2,4,1,0,S7
0.8620439926840496,0.4474475019615959,0.5051939233579145,0.4491422344088343,0.8873429744059604,0.8526224457542594,0.5093800517455624,0.5014627462690304,0.5796973348669419,0.9030690543627156,0.5002990126601371,0.97729135055011,0.7789878367702077,2,4,1,0,S7
0.862650835951983,0.4479506163950623,0.5008996410724984,0.5934696725569415,0.8845588824495445,0.8527287921849582,0.4366053047595702,0.4949710562296189,0.5794832026404093,0.9041715875379396,0.5280966237945064,0.981182057012442,0.7796689499247413,2,4,1,0,S7
0.859256320705701,0.4371310688806997,0.5100291100657298,0.5497676075798715,0.8876685255715593,0.8529417234912684,0.5738137985908262,0.5007378856782081,0.5817146329033465,0.9036253715934922,0.548441924054596,0.982408249711173,0.7806486385906982,2,4,1,0,S7
0.8593692679697253,0.4425800466421839,0.5112940354908262,0.4367124143618627,0.8890440556528789,0.8531174573913247,0.6282259592699972,0.4925586978350241,0.5820657328888372,0.9044051545429812,0.5415121405238408,0.9818102575359616,0.7792083103016676,2,4,1,0,S7
0.8604158816770805,0.4454324336557204,0.5075416206359307,0.4344183964434526,0.8916209683365788,0.8531770686192953,0.6263391433011453,0.5083386328093105,0.5777735759419956,0.9027665580867492,0.5285919743586024,0.9827406863110651,0.7790019989979236,2,4,1,0,S7
0.8585877457673196,0.450281845320999,0.5127695756953761,0.6182781854993091,0.8982667708969724,0.8527641774098815,0.5626786215665319,0.5059580396872867,0.5806964955054448,0.901304388846496,0.5110867767621446,0.9837960289673164,0.7806512154009795,2,4,1,0,S7
0.8598492096025783,0.4451035374144228,0.5096373309736515,0.6238933832730513,0.8962595041165031,0.8522600094882,0.5648883906985243,0.4941149610838287,0.5790672884396664,0.9053734882719594,0.5046309660713099,0.9846458448724552,0.7792801143028076,2,4,1,0,S7
0.8598570634010376,0.4397539095097381,0.5108666565982941,0.5904703988022166,0.9048604091292272,0.8524235826977503,0.5270751521364503,0.4781739888754501,0.5775983436035115,0.9100285884273271,0.5628478726102338,0.9781501116963118,0.7791117245005608,2,4,1,0,S7
0.8623757615959841,0.4257827455531503,0.5029320666856159,0.5497262270868141,0.9096471879736738,0.8525013157390239,0.5055271023514348,0.4904683806845422,0.5795080270700472,0.9062510006937528,0.5257016302180821,0.970593989034616,0.7790572443770315,2,4,1,0,S7
0.8643856700154124,0.4269535264183899,0.4991429725300277,0.5780094069135544,0.9100338422651916,0.8525535351747259,0.5287897524902935,0.4905486913491769,0.5800961433548463,0.905598009514388,0.5058963229237848,0.9712772909545128,0.7789450008317063,2,4,1,0,S7
0.8609284385545195,0.431837721252318,0.5051867160944759,0.7075555389365991,0.9094679209617844,0.852672328429825,0.5808983532532117,0.4903993987367007,0.5807339031996651,0.9046034545635976,0.5322760471515559,0.9775196685356342,0.7790407541355334,2,4,1,0,S7
0.8609280904628548,0.4359187877957737,0.508423124157998,0.2963147973964386,0.9074156202651976,0.8528160630227071,0.6527951391960176,0.4886822673105974,0.5811768749074256,0.904884739175776,0.5523575600386058,0.977163948047668,0.7789277751646003,2,4,1,0,S7
0.8652116543862047,0.6159572120014616,0.3513322165353379,0.6399593126901999,0.91224326270136,0.8527420020330767,0.4912162254598641,0.4902838298687754,0.5792600067141686,0.905329372206344,0.6052111265357232,0.969098901176952,0.7797400570557544,2,4,1,0,S7
0.8771405876301145,0.4727104295590127,0.4136559607827527,0.2598280461809522,0.9120035817437908,0.8549782814836461,0.49326119472474,0.5867560174174664,0.5740145862512847,0.8683248161313858,0.5079812679863351,0.9891428863204588,0.7786822027405272,2,4,1,0,S7
0.8772516243702633,0.4917142072449296,0.4331046577440488,0.5606913193254209,0.9155227462683072,0.8561067458736152,0.5192990089242194,0.5989117374445774,0.5725240837472501,0.8632017774778389,0.6617255715961959,0.9825126796205056,0.7786891734914628,2,4,1,0,S7
0.8778416999756841,0.4875452383093867,0.4363880594696182,0.5533115798653884,0.9169017437876126,0.8564469590738875,0.6337293218499702,0.6144242347288391,0.5746668107877484,0.8574111275141018,0.4150643226545775,0.9776201534599384,0.77858954568382,2,4,1,0,S7
0.8784856238297,0.4959511105982187,0.4303558149692267,0.5419722360537428,0.9200627990371832,0.8571924809353755,0.5101001419967256,0.6074940021572637,0.5743027691932008,0.8593486973107943,0.5611146781495435,0.9729871707172018,0.7788789948599552,2,4,1,0,S7
0.877308937112027,0.4981881397086298,0.4371379349618791,0.6951030391116572,0.9226096091798824,0.8572854744510091,0.5656366680597513,0.6046646070735414,0.5735489955040383,0.8601880605821117,0.5420304135471032,0.9710533154202634,0.7791068925397623,2,4,1,0,S7
0.8777963406238701,0.4983350887701204,0.434055022614741,0.7296383242152819,0.9290607264003652,0.8584219029010354,0.511581506547223,0.6033348639096744,0.5761396464429975,0.8597638012590556,0.5176851757987934,0.9608331969066974,0.7792724423609274,2,4,1,0,S7
0.8773482073933199,0.48789528580587,0.435944005385791,0.5351046640131082,0.928751487713581,0.8584187554281983,0.6366876151658718,0.596361098363101,0.5731747265683399,0.8616477403231575,0.5536061167729479,0.9642698954915424,0.7775992906199788,2,4,1,0,S7
0.878070586706545,0.4891789648266641,0.427630326523576,0.3082490646547934,0.9272086407385705,0.8585497093738036,0.5945625084064797,0.6013042631629693,0.5703855388437296,0.858518493317203,0.5293922746616455,0.959506925911491,0.7777484167233959,2,4,1,0,S7
0.8695942358934476,0.7075960656231657,0.4511233822561329,0.6784718372087499,0.3827587623094082,0.8656193148771885,0.5150146356402515,0.7081936972433276,0.6137503496145661,0.7874918345793835,0.5193636387288451,0.2898433495293834,0.6760940081309162,0,4,1,0,S7
0.8675894514780461,0.7089185047845035,0.4579339098536925,0.4497451942691963,0.3901504663965464,0.8665350864057595,0.5810819161931913,0.7054469657509195,0.6024640112492435,0.7971678671354561,0.5296860494253973,0.299456750922414,0.6755743477623444,0,4,1,0,S7
0.8672503323576758,0.7131991154033572,0.453367318450709,0.5606623124761998,0.3908279267228604,0.8667091988804153,0.5422110028559554,0.7104546084224905,0.5997616315431468,0.7955478895365833,0.51850133441672,0.2985607614904488,0.6761527751471108,0,4,1,0,S7
0.8688266366400956,0.7241773083663982,0.4441174969033942,0.4828220828655925,0.3907822722417984,0.8670290011962305,0.5081380691362547,0.7213297458647907,0.6009413791716313,0.7865619955810483,0.5217844789571024,0.301984089541913,0.6760755746991602,0,4,1,0,S7
0.8645730122219533,0.7629579625058396,0.4521244003338647,0.5298118159720827,0.3957794798818124,0.8684901916162387,0.5789109300061392,0.7134671994547632,0.6015204448880785,0.7933632851450801,0.5244947658313049,0.3003204774190854,0.6768486166917418,0,4,1,0,S7
0.8668400598442453,0.7601379143938408,0.4401785482411903,0.5018786338478823,0.395592346116935,0.8689506764300639,0.5238309619858275,0.7163714687781776,0.5919162478621143,0.7966009037436572,0.5478958266211138,0.3018879500000806,0.6765652362234553,0,4,1,0,S7
0.8677592590302031,0.75162171243421,0.4366520564983485,0.5143255833665751,0.3949350367412826,0.8694566565330758,0.5880161381737719,0.6909274390695955,0.5938761942595971,0.8084895099417598,0.513606389058578,0.3012206782952937,0.6769769167611961,0,4,1,0,S7
0.8687719754314353,0.7523953049882492,0.4225937461444546,0.5066031161179758,0.3945892694376069,0.8695954314717907,0.5343380655393142,0.6913037711221297,0.5925086811324851,0.8056230796507132,0.5047123162238438,0.3080965754843451,0.6757864110117879,0,4,1,0,S7
0.8695611210576176,0.7396461768901361,0.4120220401705422,0.5351711630816735,0.3938484087019946,0.8691994698511208,0.5712847688271527,0.6762305313010952,0.5953415069214272,0.8161005456605173,0.5178230059785331,0.3055135559176759,0.6780840776486787,0,4,1,0,S7
0.8715942013258399,0.7234589933400783,0.4270155944559357,0.5072888806478172,0.3946674370149903,0.8689468613114736,0.5873232907263375,0.6727079292187117,0.5987088557766524,0.8187056424996186,0.5254690125750124,0.3055035938202645,0.6790629177509329,0,4,1,0,S7
0.8671055267292685,0.7513424200027053,0.4359687863901264,0.5397287334300824,0.3985116688571158,0.8680908440778199,0.5281727151374604,0.6733944603502283,0.5932303934281165,0.8203726948148915,0.5121233829456165,0.3176465067960867,0.6776560178130987,0,4,1,0,S7
0.868564180558179,0.7449019904490999,0.4335795545355864,0.499683946609014,0.399379746541174,0.8680752020916007,0.5520284001981529,0.6821365636034253,0.595081050736839,0.8139855780233916,0.5345414079802154,0.3228226987786987,0.679330124302435,0,4,1,0,S7
0.8685728534121953,0.7494777010406776,0.4209196807529158,0.5171508347265084,0.3993282480971088,0.8681157854156027,0.6258967763622926,0.6783342140186976,0.5930269886808033,0.815310161284232,0.5224539525139842,0.3216287965803342,0.6777381131557256,0,4,1,0,S7
0.869476478457435,0.7389529439912569,0.4311130869856804,0.4701507559019494,0.39911598459516,0.8678512546303617,0.5748778608209263,0.6718293070946497,0.5954852765711638,0.8218335935187574,0.5193148305687116,0.3202536148845627,0.6772805594835463,0,4,1,0,S7
0.8679956548159387,0.7611355451229878,0.430171732673306,0.5246347855180982,0.3990381778279895,0.8676384187020164,0.5002139436226295,0.6753746249485436,0.592094356625277,0.8201574913348604,0.5407983046397885,0.3190431084346199,0.678100692776739,0,4,1,0,S7
0.8693027627640418,0.7501832290356725,0.4227797598449415,0.5082460503614366,0.4002004308036301,0.866470134011763,0.5095125695338402,0.6572982764743783,0.5922098319915776,0.8313590779809945,0.5349875622501552,0.3106609163501693,0.6786683689002084,0,4,1,0,S7
0.8688987194809583,0.7641627945297176,0.4182923091741732,0.5227668751972744,0.4004801372965414,0.8661837616725938,0.5291877272506122,0.660723183547252,0.5948987969849839,0.828096182390514,0.5142395603033787,0.3090833801045205,0.6804841723560187,0,4,1,0,S7
0.8683725623540612,0.766438654805904,0.406640414258328,0.5202021105934334,0.4003499534719845,0.8657950964662273,0.5971696073057357,0.6560133517710214,0.5945743325497578,0.8296523256818308,0.5215090365619484,0.3087046804195442,0.6789167102164875,0,4,1,0,S7
0.870017672748825,0.7433192733439707,0.4094638669380208,0.5241453985437466,0.3996433951363045,0.8627295056121347,0.5763859936441927,0.6614937899853,0.6010926603334023,0.8247693998137543,0.5028666368540962,0.305069606028984,0.6808235683257742,0,4,1,0,S7
0.873508590996487,0.7185489583829059,0.4172005240613877,0.4052260623705896,0.4008894165731126,0.862411896989509,0.5970581280948266,0.647691316067991,0.5971309009645577,0.8335410378784167,0.5810261180823766,0.3080497407486968,0.6812939333591093,0,4,1,0,S7
0.8739704417193623,0.6040394377635538,0.3550201637795658,0.3896895381091699,0.4017782903369951,0.8623684046375819,0.5475414339611812,0.6520761191429443,0.5999397844384929,0.8338259241093915,0.5196996041973188,0.3045819992755246,0.680986683940906,0,4,1,0,S7
0.8779268380367311,0.5576107604820065,0.3905779641575777,0.4857994402145509,0.4040025993993491,0.8628585043094624,0.6197508815181028,0.5854548851703323,0.6048691147122001,0.8599676628657404,0.5848229754651338,0.3164270972402169,0.6812716584051738,0,4,1,0,S7
0.8772708283453746,0.5421371698332528,0.3756607087418265,0.4868937400801147,0.4030824484620943,0.8633702547793419,0.5445245739133836,0.6780040366020156,0.6175849868411135,0.8072414002327076,0.5862988869408929,0.3079578984947222,0.6810908284621953,0,4,1,0,S7
0.8815117441089132,0.5661315468986529,0.3697314490000938,0.5404008005868002,0.4022152436754059,0.8632259956076541,0.5832655703258731,0.6188211798040717,0.6048468044728128,0.8545010286132133,0.7511130879357855,0.3067825552764347,0.6816378179162716,0,4,1,0,S7
0.8664379296780672,0.62956069158522,0.4633574501383238,0.5836729101992162,0.403557664891972,0.8624935882163194,0.4949805682858296,0.8429466252135821,0.6651711550377521,0.5526421253140255,0.2535069731061706,0.2731978827142541,0.6841510177875537,0,4,1,0,S7
0.8727053840472738,0.6209167233129465,0.4469612772804495,0.4601315731737244,0.402738030385761,0.863126897902276,0.6126269300149234,0.831451269785955,0.5964167250002174,0.6907516619174718,0.4878173312739146,0.3082966972133573,0.6824625296245402,0,4,1,0,S7
0.8452867685363696,0.4223123470644302,0.6121772013709903,0.5985642181000415,0.3345654822203121,0.8387206508734053,0.6540137630706668,0.9540743725457206,0.5635392860681666,0.5528829681057056,0.5436809787175713,0.098463188002248,0.8720719178169583,2,4,0,0,S9
0.8472456079208073,0.4283846794308602,0.599804496232411,0.5608028797264437,0.3311240725672472,0.8384586251550489,0.43098909728031,0.9583553150944876,0.5619323298754664,0.546971782950999,0.5468774108414058,0.1235488306576555,0.8721394605458201,2,4,0,0,S9
0.8533501644174937,0.437542370631268,0.589586627898222,0.5508589621671479,0.3285715930856465,0.8383066958742309,0.6453467259468907,0.957743593775464,0.5618264106776839,0.538956782518991,0.5467145738731728,0.1440303807559114,0.8738254746446494,2,4,0,0,S9
0.8477431797222132,0.4536421781560676,0.6012518658865884,0.6412264689696761,0.3304245024024438,0.8383920729043776,0.5218332003132463,0.9577723643124488,0.5618024476119597,0.5450715396988319,0.5522719462676919,0.1559444545696062,0.8716038780617207,2,4,0,0,S9
0.8476187624284044,0.4494507228111749,0.6023649444311774,0.6153116937067629,0.3305298903073992,0.8384398003755732,0.5135668993051713,0.95787552456736,0.5617151687006109,0.547575913108545,0.5527384458701557,0.1472907341084013,0.8721844190995898,2,4,0,0,S9
0.8532996529880478,0.4513549408802525,0.5899121961889139,0.5707680465557338,0.3326036175672289,0.8385367765122655,0.849276097191883,0.9567806807789062,0.5619941550410629,0.5520828949928551,0.5518405138463064,0.1448824640782037,0.8734028823252737,2,4,0,0,S9
0.8508494400327518,0.4495287304113668,0.5964906499452348,0.5340832171604402,0.3623472425695645,0.8382003548851228,0.564008737385796,0.9574027632227446,0.5615730465995802,0.5480992929959939,0.5417710110228657,0.1687333435848054,0.8704273514435745,2,4,0,0,S9
0.8541442275394169,0.4502229241891265,0.5895891237558076,0.7034004739632895,0.3652565455054297,0.8380683437421846,0.4994269560541705,0.9576240770184818,0.5620068021285358,0.5472747158813829,0.5471238281148874,0.1778184957964157,0.8706908198618051,2,4,0,0,S9
0.8514482347192137,0.455243359727579,0.5933241975494556,0.5176447447979041,0.3706180554818601,0.8376199241846267,0.5306025425922911,0.9576786081665296,0.5620684654462265,0.5506983628082038,0.5775323677855295,0.1842997849086691,0.8733078162300228,2,4,0,0,S9
0.8525369005794382,0.4554551590013597,0.5911024008096526,0.6767060257444752,0.3776297777758629,0.8375618811145771,0.5117751854238496,0.9571910877278744,0.5618077850338675,0.5511119229832131,0.5326214856302709,0.1925659331956616,0.8703138421028744,2,4,0,0,S9
0.8505711960027746,0.4527112108567915,0.596032646707233,0.6263001849373945,0.3864229535359343,0.837176163284616,0.5457666879495815,0.9580001004087468,0.5618978363634881,0.5387355202482297,0.5446340611305954,0.1984955198236582,0.8715903633281585,2,4,0,0,S9
0.8539246962215565,0.454576176370606,0.5878393333772135,0.5902412925845083,0.3871073028909652,0.8369357195104052,0.474725153212665,0.9585729499232988,0.5619282359017873,0.5319184707312575,0.5131907867643336,0.2007339751093355,0.8704996310844441,2,4,0,0,S9
0.8533651705387201,0.4569582365535573,0.5889425373233691,0.6093460735830999,0.3887238540746845,0.8368330388950842,0.5077127481924187,0.96074385958016,0.561844851663373,0.529219123980708,0.5499730652824307,0.2002149396393864,0.8704768967826902,2,4,0,0,S9
0.8566468603795285,0.4546285260616884,0.5821446429683047,0.6623984587343602,0.4023897914855311,0.8363576656760047,0.5875587476154069,0.9586471065679084,0.5621685161432715,0.537143554695565,0.5457829969599094,0.2061454686920472,0.8695927009549769,2,6,0,0,S9
0.855876639029138,0.4555641887276566,0.5857708958053297,0.6080540667959683,0.397875532620709,0.8363621341842639,0.5009554702483539,0.9576757088535182,0.5619732133262649,0.5369803117992782,0.5492036317729824,0.2111622483173005,0.8687889414674543,2,6,0,0,S9
0.8530881886518145,0.4602826346841687,0.5901653881993689,0.6197396071986833,0.3942648658029422,0.8359863991919035,0.6442911019005528,0.9582497195355092,0.5618880542769789,0.5357349695622281,0.5583494627520426,0.2065899427158418,0.8703004009773969,2,6,0,0,S9
0.8542803458759053,0.4561769027531885,0.5890106357239853,0.6794989163203582,0.4186467787288648,0.8355263329904783,0.5935179227738895,0.9598239888365062,0.5620622265822401,0.5335289445389505,0.5488161585839317,0.2263550659239414,0.8704145374241685,2,6,0,0,S9
0.8539775245525952,0.4538974323874599,0.5883696798364966,0.6350009811909776,0.4141798823604918,0.835482503579679,0.5380791711726609,0.9584866180346472,0.5620463119131242,0.5326132349697408,0.5516218587941413,0.212843512827183,0.869790126069622,2,6,0,0,S9
0.8553907247478875,0.4554196686811668,0.5853668219579218,0.6265427220859616,0.4128975400231973,0.8353580508709241,0.5785233987751024,0.9598439299232888,0.5619893327502007,0.5289466890826776,0.5461225621657756,0.2102465348620155,0.869901554615911,2,6,0,0,S9
0.8560404521310656,0.4541990684618563,0.5847540191716738,0.6113513945376063,0.4126377682237675,0.8353121773552828,0.5602283869807273,0.95961594520436,0.5617940421978801,0.5291819985578802,0.5426866756348392,0.2056100396536094,0.8696321664506774,2,6,0,0,S9
0.8558537915965571,0.4540746908512698,0.5830088657511381,0.6004578777577991,0.4136411659118171,0.8352835123501724,0.54929612647869,0.959358777008881,0.562039243264665,0.5306682788327025,0.5473840996790508,0.2051425171219128,0.8685355111002362,2,6,0,0,S9
0.8537933185635975,0.452771341601933,0.5897285161059381,0.6258004850062583,0.4163444641494668,0.8351688998670522,0.6029205318997384,0.9599408112287596,0.5616759251807569,0.5285180494029564,0.54401587539642,0.2034429924939504,0.8685650534283489,2,6,0,0,S9
0.8560336191751858,0.4545925595022047,0.58417752444546,0.5292947952460155,0.4173610681147923,0.8351001608995733,0.4996887902108761,0.9602473296219232,0.5624472150359465,0.528962538720164,0.5591696691210867,0.204405164060203,0.8685197434408107,2,6,0,0,S9
0.856320949819734,0.4516176020767175,0.5839316027701662,0.6038192440216469,0.4260267546859799,0.8350459683525983,0.4878115652112301,0.9621611414548076,0.5617882024877398,0.5278073993832835,0.5340189744764328,0.2066619298417443,0.8685740214559234,2,6,0,0,S9
0.8534667473712428,0.4533557812480155,0.5896529708850007,0.5892480581838985,0.4248185667125601,0.8347715829305454,0.5549248746643193,0.9638691322656232,0.5656926739549272,0.5192233227481913,0.5549039667405165,0.218184431490728,0.867421195125775,2,6,0,0,S9
0.8553963440549641,0.4526530336391832,0.5868326024686021,0.6497232746825493,0.4387662779894462,0.8346542608200765,0.5848602817331704,0.9622169226806172,0.5642094208216649,0.5243173246725426,0.4882519286807386,0.2418553812910262,0.8685094827413423,2,6,0,0,S9
0.8522230057434783,0.4514586659288011,0.5920247451011642,0.608457746425297,0.4362847356553372,0.8345900854355011,0.5542270935611686,0.9625478210925138,0.5653321829758847,0.5232975512232876,0.5736846034836417,0.2363755281017617,0.8668706197436389,2,6,0,0,S9
0.852749139524619,0.4667998316415515,0.5900599867897224,0.6277716211308277,0.4404349940632918,0.8346774590331679,0.4947753404279455,0.9646830319974776,0.5639429103067662,0.52099186794598,0.5485954076229752,0.2304395109066681,0.8682555461818195,2,6,0,0,S9
0.8492112003358047,0.4479030486036736,0.6003530443434588,0.6186588673407113,0.4484468981827712,0.8346393816383195,0.599892946905612,0.9635904247314192,0.5630534020422263,0.5217343908201059,0.5579925082440085,0.2248041037085978,0.8673137836626393,2,6,0,0,S9
0.8521073408885609,0.4487470416785882,0.592564737323825,0.6162987369456446,0.4448582902902355,0.834701607992697,0.4894865227583126,0.9643019583417364,0.5627113649746773,0.5248363119628529,0.5495923406875366,0.22045416640621,0.8672142690846281,2,6,0,0,S9
0.84638490219026,0.4044649201000778,0.6107634148163557,0.6012494298394072,0.940002812172156,0.8409561885107709,0.9213194369192004,0.4542610926528151,0.0422602678218778,0.4974646951833264,0.5866243581989524,0.6602153982967169,0.7473483105796876,1,4,2,0,S9
0.861289481611045,0.4882441626626113,0.4336213462576546,0.4546681725069623,0.945795517132662,0.8422016663447597,0.6218858154921424,0.6780771002395832,0.9301597049178534,0.2100355537006786,0.5619938632098456,0.6156149988065627,0.7425518006891888,1,4,2,0,S9
0.870465531590336,0.4606361968079835,0.4696089321854595,0.6614644763706586,0.9500969232132256,0.8427335139022658,0.4573566867393367,0.7275854924541743,0.7937360949565238,0.5780242659690449,0.6397208088268844,0.5992962590807944,0.7431353294571045,1,4,2,0,S9
0.8549808376217957,0.4279433987787057,0.4230062284785061,0.6313240601165978,0.9532202612123732,0.8435085623986533,0.5619955809595346,0.7203010575787764,0.5947266852191717,0.8649035216384062,0.4756468941986739,0.6721203954733781,0.7444124142980122,1,4,2,1,S9
0.8697862896244176,0.3929548113064559,0.4695887472557645,0.6038215265621586,0.9395186972988904,0.8451359075395286,0.5025200287227026,0.6988657619712213,0.59280449199917,0.8704776499219453,0.4977330252567105,0.6541391907512518,0.741375843159421,1,4,2,1,S9
0.8563469110757839,0.4176117585851577,0.5834423477091595,0.6108422499086341,0.9526319914818516,0.8460757203936486,0.5908765005508634,0.6956507319037736,0.5659836199225722,0.8752827792892506,0.5948769842269603,0.6711816814115619,0.7427188185776035,1,4,2,0,S9
0.850917445161584,0.4008477017105177,0.5931888690610279,0.630507012789208,0.946539405717892,0.8464337715022596,0.612222144158463,0.729800748092346,0.5615287705782189,0.8565760016497459,0.4736877814441667,0.6653156872708585,0.7425662533681182,1,4,2,0,S9
0.8538972057836308,0.3963251672039249,0.5879749769414656,0.6047266693595058,0.9402606348205098,0.8466727891568127,0.6102443600030163,0.7410792695924814,0.5609717171729741,0.8500598004246468,0.561720443410871,0.6657435486860421,0.741320049963133,1,4,2,0,S9
0.8583464339540747,0.3894579463573653,0.575471254186723,0.6078094715476622,0.9309219656162184,0.8470294616830881,0.5915047608601146,0.6994569635277079,0.5557127494798701,0.8787998264519217,0.6286770041820378,0.6603731449887873,0.7426255978332884,1,4,2,0,S9
0.8593128679136369,0.3990195223549812,0.5725281554470463,0.5472751616212101,0.9332802609952616,0.8477066308336672,0.4794245978787643,0.6826190140383489,0.5699446288381578,0.8855625770685953,0.4794294406824878,0.6596142421644478,0.7411333473505822,1,4,2,0,S9
0.8589447915157751,0.400492511734638,0.5729545609265468,0.638989029033424,0.9491679303813808,0.8480012671548526,0.5037744394853951,0.6688701135486353,0.5720539943920018,0.8911266198463321,0.5506317281352896,0.6564766594017515,0.742480823388681,1,4,2,0,S9
0.8587960312716407,0.3725687449788374,0.5688288891375521,0.6239517458304006,0.9499122131055198,0.8507502078688243,0.4871624869597076,0.6733968373759778,0.5887649931446355,0.8857796322060123,0.5431509029067927,0.6671634477836927,0.7424945835478481,1,4,2,0,S9
0.8623851308501083,0.3797401831624512,0.559920356569239,0.6364721855394151,0.953550484877174,0.8513268831208896,0.5744921283969436,0.6664967875690467,0.5920222504428783,0.8883096355292691,0.5130997446924769,0.6625681031252372,0.740907173261965,1,4,2,0,S9
0.8597230882889345,0.3720243827784075,0.5684188421295118,0.5904104040916776,0.9548989924063273,0.8515263497236154,0.5568643371311004,0.6567491923182661,0.5954607544735642,0.8916889258869358,0.5221874124113882,0.6599299865130946,0.7408707308361108,1,4,2,0,S9
0.8605433943500896,0.3915766135804042,0.568522350959173,0.5695965022623831,0.9531794254738936,0.8516813213930355,0.6230757010404979,0.676328412126425,0.5857222607677132,0.885884290051224,0.4904217930448138,0.6508317367689666,0.7407118487735234,1,4,2,0,S9
0.8621769415401008,0.3900007752116879,0.5642104900095857,0.6202089323538285,0.9585447733347794,0.851612867649488,0.5017016400047871,0.6635113406219211,0.586502030645044,0.890654532004358,0.5736658032493385,0.6451459156413814,0.7409179560972521,1,4,2,0,S9
0.8595913558506292,0.3610499853318667,0.5654953627028173,0.5811983995973012,0.9538487112933572,0.8516746661679684,0.6910153660528485,0.673772593365458,0.5940177801708275,0.8839777815835744,0.5913001352280175,0.6473678433160559,0.7414290294130059,1,4,2,0,S9
0.8562511072288919,0.3846259122950795,0.5807390085012538,0.6443838120459081,0.9569386037229765,0.8518144258943778,0.5203619752275783,0.6671810810302292,0.5938661797572041,0.886589417046227,0.5495452218927904,0.6334020836204026,0.7425489337053183,1,4,2,0,S9
0.8549896130008477,0.3845030449487459,0.5825301002948099,0.6031771105020831,0.9475059262991774,0.8518258348516357,0.6640270867780542,0.6784678475824759,0.591812745562898,0.882097015697887,0.5157093640922585,0.6267045454571532,0.74076862393098,1,4,2,0,S9
0.8541794849351709,0.3827425506947278,0.5841818329524221,0.6272099845093856,0.9446895167855068,0.8519558018897319,0.4912872172230044,0.6914658592303261,0.5914855004531069,0.8779048280428601,0.5230111304377608,0.6217867052944452,0.7406830138915259,1,4,2,0,S9
0.8714383800641916,0.3919632451093724,0.5099710330512202,0.6210993388305204,0.5771432702093691,0.8587076227949633,0.6165171270741328,0.6232826162026348,0.6070834196416673,0.904761439633561,0.5419828930125571,0.1244402444329065,0.640070500343889,0,2,1,0,S9
0.8725775578647685,0.3953059523599975,0.5091262186451546,0.6077491340692184,0.5769564311372225,0.8589861915013438,0.5139190528948042,0.6193695897532735,0.6049476720602197,0.9049170764261976,0.5420356695678338,0.1235725821207965,0.6401367582118351,0,4,1,0,S9
0.8711618902436036,0.3981527791416198,0.5066014961334427,0.6161604133707096,0.5770794157511651,0.858851851029632,0.6144362916555575,0.6181619803582257,0.6077675733391033,0.9053527180170606,0.533068183909333,0.1238134287780427,0.6400427944570827,0,4,1,0,S9
0.8722876438934641,0.3983209760903288,0.5108287651901354,0.6206582785348836,0.5770281238346716,0.8587777878820996,0.5922716904422619,0.6173818638756859,0.6062180418986273,0.905603626295186,0.5654133819298749,0.1230253696253536,0.6403186078746455,0,4,1,0,S9
0.8717756833400403,0.3983616756408936,0.5096539038568276,0.610815796976263,0.5761441176709846,0.8587612924313973,0.4800338241735802,0.6164705501125636,0.6071066686298902,0.9047433640459008,0.5470008534101122,0.1225860363170992,0.6412584733684131,0,4,1,0,S9
0.8723555110356552,0.3920257923564347,0.5101334458735918,0.6086310738140039,0.5736679833473204,0.8590935307742122,0.510298038643441,0.6190620309710227,0.603460331731443,0.9049595273379958,0.5333117563239733,0.1230794133829439,0.640276761111302,0,4,1,0,S9
0.8716995777586101,0.4023717134947849,0.5063694372806762,0.6176413546612703,0.5738770888635327,0.8592494531900702,0.6168728559812884,0.6281719807727181,0.5989624133961876,0.9049213689566116,0.4932864123376407,0.1229885893583819,0.6414498430825463,0,4,1,0,S9
0.8722672261277769,0.4031145449128795,0.5104194194971976,0.6132401494077298,0.5731765949193264,0.8595619160069713,0.5957644294544137,0.6211697438258478,0.5964340907375626,0.906879282023983,0.6669844223728928,0.1217031610570486,0.6412095742076493,0,4,1,0,S9
0.8719829694122103,0.4038783872255863,0.5084980814415614,0.6172036551292458,0.5726291268786932,0.8597653757447374,0.4891392649450767,0.6195174318586435,0.6012209131329674,0.9066420643537264,0.4249901193769319,0.1214900031140341,0.6400650098493861,0,4,1,0,S9
0.8711230053822929,0.4491289162756315,0.5148532218101758,0.6209900430356011,0.5723438873014447,0.8600313945981343,0.5870868534956661,0.6428656500408928,0.5873688388395174,0.8992491774587547,0.5185868105543945,0.1188125145099001,0.6389899959318117,0,4,1,0,S9
0.8242353843626595,0.5062659480876112,0.3718926381782836,0.6314022310111137,0.5848016659982345,0.8600283997468542,0.6057646849939164,0.6748504525894087,0.5989307029952219,0.8806713682311686,0.7012623787011802,0.1211181478374614,0.6413027173134792,0,4,1,1,S9
0.8419632058067836,0.3975148495853134,0.3919040079683264,0.6152010106827906,0.5959031953903327,0.8602992674070855,0.5154428049667531,0.6974339106242994,0.6905482789578854,0.827001205230878,0.5575407215546516,0.1247198172606482,0.6404227659357817,0,4,1,1,S9
0.8358555726463588,0.3933195380909926,0.3841808033800535,0.629266074175155,0.5956717244383054,0.8604795289317607,0.6085760798200319,0.6860339591490121,0.6941357075876043,0.844771811158312,0.5450214120570801,0.1249483913646007,0.6409417709923035,0,4,1,1,S9
0.8425626341934767,0.4143182960628323,0.3852533513728046,0.6152562258725032,0.5960398481245526,0.8607136027048353,0.5747264527629868,0.6995950279608525,0.6809937344296595,0.8230707283696965,0.5472020643610481,0.125138862408656,0.6391329210465181,0,4,1,1,S9
0.8134390434650217,0.528649831085032,0.3580173868567455,0.6046163005010283,0.5998120901771284,0.8609487222989922,0.5606345802511781,0.5588651838991643,0.6428764830013525,0.9367331568416566,0.6170874310726409,0.1227865093330732,0.6415064634521188,0,4,1,1,S9
0.8045077815021566,0.5402333947542959,0.3439170565094827,0.614525548610278,0.5999845761827673,0.8607322848723452,0.6012928987388042,0.8968321475165132,0.7179025353916744,0.4083957436219736,0.4568518506664931,0.1149621527177803,0.641146599551702,0,4,1,1,S9
0.8131255718688757,0.4895068075153064,0.3606886397314259,0.5972214428350259,0.5998580527010823,0.86061405955276,0.5259833040808801,0.8045271653475401,0.6936230409802342,0.5832569766009521,0.5213819516348216,0.1113867038690986,0.640113845207745,0,4,1,1,S9
0.7457438655004627,0.4513783593076663,0.2829687595093739,0.5527313452732171,0.6201417407635758,0.8600439444511181,0.6681890172696744,0.72663773412339,0.7715603815952481,0.7390724419616287,0.5641979393111486,0.1115161500949376,0.6411481099503025,0,4,1,1,S9
0.7779278164012008,0.5121215266522536,0.310403067962208,0.6069339355071394,0.6331447037475971,0.8598472825503848,0.4893755438746281,0.794293453580323,0.7304747079587636,0.7048228250694213,0.3361102102268889,0.1108651374496459,0.6401320480641534,0,4,1,1,S9
0.807505985126403,0.5209585167473234,0.3577267824972687,0.5496241898120175,0.6408987165540849,0.8592966102134031,0.5741223725224258,0.5775633878133846,0.6124515032611987,0.9176750366034636,0.5564679693551645,0.1191725212195053,0.6387396498394027,0,4,1,1,S9
0.8059392939748634,0.4995420671525237,0.3361803210059008,0.5969705734005543,0.6519593790168786,0.8594051854566407,0.3945465001002198,0.5849414616712483,0.5877950513120606,0.9169832086526256,0.6758283187554153,0.1215971924879767,0.6390389260523015,0,4,1,1,S9
0.7534883249023218,0.5131828686456668,0.2948591452801697,0.6526676347668126,0.6399189456354281,0.8594610893472044,0.439031187309398,0.6782274888609257,0.5121999399122195,0.8964430846836091,0.2944294372539168,0.1241188455307011,0.6400741673075065,0,4,1,1,S9
0.8551510195601815,0.5161834623972429,0.5050436218820136,0.6665182303164845,0.6527458495040346,0.8580381071532117,0.7196462338184262,0.7275650828581455,0.0527260971263203,0.2242845384558299,0.5830266026951875,0.125534299611605,0.6400888466454324,0,4,1,0,S9
0.8804551425955258,0.4374688478883938,0.4886996486785087,0.651950051616266,0.643808709012744,0.8575013157142268,0.5583685627412864,0.6460825018186271,0.0779558783604627,0.486902597956434,0.5413415610519472,0.1272870090077064,0.6400954902844244,0,4,1,0,S9
0.8660874067802482,0.5139443472571388,0.4728078072183216,0.6247166698792377,0.6391448192068513,0.8568991129202969,0.6844973250320687,0.5555620628133108,0.0612238415529694,0.5638326910165865,0.5109162770150039,0.1269411011809064,0.6402525657816494,0,4,1,0,S9
0.8634860967277379,0.5298112931885891,0.4454339377926144,0.5982206047682725,0.6379494990065706,0.8566380379483786,0.77985647581347,0.6058047837340652,0.0782138096826318,0.5298722837479605,0.5808272426840531,0.1257938747567139,0.6414567362295927,0,4,1,0,S9
0.8615769625428078,0.5602583227383747,0.4899745223600372,0.6150748114066501,0.6448145319322638,0.8565001797148453,0.7948841057568019,0.5343290742275739,0.0502183724850437,0.5765321832854241,0.5410324914836553,0.1261460920706456,0.641295437721919,0,4,1,0,S9
0.8623747448615678,0.5814689151127301,0.4453837725696243,0.63058999743332,0.6455144151792885,0.8564901968772448,0.4286327405472135,0.6794196496738308,0.1235267074318756,0.4478433165512881,0.5548620493929212,0.1276380733002063,0.6416537430866702,0,4,1,0,S9
0.8588501016840009,0.5381130973731499,0.4342147877636455,0.6064118122060049,0.6397705735997459,0.8562276007110251,0.6370174543144096,0.7344514501032465,0.1210197670435843,0.5305055017793229,0.5321665661683382,0.1277888771993443,0.6415122536337381,0,4,1,0,S9
0.8580839610815227,0.5816699715619353,0.435043897634203,0.6132219953703636,0.6540472008169516,0.8562411013104471,0.4951587918435788,0.8095137267666932,0.4696306571670599,0.7954529704555342,0.5324032032529635,0.1239690234658822,0.6437776991243724,0,4,1,0,S9
0.8556495246188575,0.5639852091332448,0.4263435166239772,0.6346913049993896,0.6896550565842204,0.8560290848547375,0.5338643986255925,0.8046434480564496,0.484256969748996,0.8022964547231226,0.5644480708251159,0.1313408136869939,0.6426728923030663,0,4,1,0,S9
0.8529056115547242,0.71449936567758,0.4571884559541957,0.6275475964046071,0.770819837375167,0.8552842700950837,0.4999334520749948,0.7572164844973742,0.7494625479462889,0.7313224145695912,0.726639628443666,0.2623372105258559,0.6427548260148813,2,4,1,0,S9
0.8381799163137846,0.7536797286564713,0.466357445042842,0.570204083239682,0.7728113546661741,0.8547090684999972,0.5319377655583277,0.874823130343732,0.6256979030082057,0.6278049220801062,0.5029326151167219,0.3200640187197743,0.6424121210479301,2,4,1,0,S9
0.7754692007221624,0.5466889735217229,0.6380525718554899,0.6227923464014178,0.7900248130108043,0.8536341545770146,0.5390269516489999,0.3363538863049501,0.03595110752204,0.4699547876161761,0.546059927922847,0.3415494577532776,0.6442543325887553,2,4,1,0,S9
0.8894768253906944,0.4312448523901733,0.4929462662021461,0.5229377514226023,0.7926730428349841,0.8532975903379061,0.673452518288137,0.7762523168835119,0.2718061246905001,0.6743074318196304,0.5260931292208649,0.3186748189263121,0.6451664164874518,2,4,1,0,S9
0.8338051046766026,0.5525675521668364,0.4178689147998431,0.5998796552630609,0.8390659236840763,0.8530770171642531,0.3505176076945306,0.6833938718465201,0.625579970356508,0.8426517520315914,0.6099819658289349,0.3152138664886514,0.6447522138597552,2,4,1,0,S9
0.8702659098503973,0.6065816867064922,0.4246040506274715,0.6469764572786424,0.8197844920240338,0.8515106624073858,0.5900565853021071,0.7382066437834026,0.3889675305347395,0.8772767949020698,0.5975856004590241,0.3092852022271557,0.6467895187072351,2,4,1,0,S9
0.8606036420624719,0.4752741420459827,0.4831005431099865,0.6283374644606085,0.823037712103715,0.8509055122994976,0.862960713775027,0.8023799203041627,0.3263806521362422,0.7024489970476283,0.5530937852187203,0.321898523398071,0.6478193424428644,2,4,1,0,S9
0.7437328181534083,0.4398663467843582,0.7348265199359794,0.5021638531242327,0.8317738105776364,0.8502323838212807,0.6985770526867603,0.968730056274059,0.4176246154878167,0.3907116573747508,0.484553245680509,0.3567238184994334,0.6476676810386869,2,4,1,0,S9
0.7003141975006385,0.4377852799686436,0.7602998163244742,0.6220639126016774,0.8457617548379686,0.8496034650524384,0.3540948029615684,0.9716596277966604,0.4378495997809362,0.4288737898478547,0.5182549919961945,0.3478095651054276,0.6465948703218507,2,4,1,0,S9
0.70079525556248,0.4400771438832244,0.7524572673496751,0.6355991458968826,0.8381809674894756,0.8494917523459548,0.3290774095001486,0.970880632941896,0.4415266776717092,0.4672306112782693,0.5869107901335475,0.3392760378764965,0.6464995329046446,2,4,1,0,S9
0.6835159081404261,0.4292464791348892,0.7662158537288469,0.6184210863148145,0.8346504096108344,0.8493274158241191,0.4265520717840699,0.967989570080956,0.4423467820314096,0.485657432415158,0.5556813792883722,0.3263086535696427,0.6478692913664642,2,4,1,0,S9
0.680958902046928,0.4200198979379962,0.7690116703030293,0.6190256905874634,0.8353353763486644,0.8493795642662522,0.4631560439782317,0.9671873883496934,0.4505947446295527,0.4966750781555231,0.5370454257315134,0.3240381526971879,0.6477982667860274,2,4,1,0,S9
0.702538512637206,0.4227711072387905,0.7536684032022621,0.6091563386496402,0.8321856223873407,0.8493703895631237,0.5734241076228949,0.9668550076752896,0.4566381178607143,0.5121365231484363,0.5411030154851415,0.3169345928563953,0.648935599639792,2,4,1,0,S9
0.6950423919966566,0.421839107001782,0.7590794266914992,0.6147854742010229,0.8306140914150532,0.8493279862719818,0.5490913626553922,0.96707233030983,0.4574279546572957,0.511356766621457,0.5450742318326591,0.3159403782442494,0.647829879615921,2,4,1,0,S9
0.6967587479008522,0.4250970002831061,0.7570775797660891,0.5971391097920105,0.8152656581004896,0.8496771479013958,0.5643664188948944,0.9698709367730408,0.4565056416398693,0.495706416359104,0.5708138591187908,0.3125704184420823,0.6488412862943467,2,4,1,0,S9
0.6975355221923337,0.4274203203513551,0.7575303824712389,0.5936305943018686,0.8214896233366026,0.8497421789577659,0.673690203094685,0.9681786589755472,0.4587873159419251,0.5047807695086403,0.558270571735819,0.3106474380533882,0.6489108786125674,2,4,1,0,S9
0.6955234084610723,0.4156677800897055,0.7583165999078072,0.6141979227579492,0.8218398544748375,0.8495663859413503,0.5021345621477529,0.9675674328610236,0.466625022327898,0.5131935328002935,0.5479963526013828,0.3075055284003767,0.6480210771351382,2,4,1,0,S9
0.6799194962344551,0.4201841602493726,0.7690496711349698,0.615710640026549,0.8207574945513627,0.8494215397214966,0.6440870683659197,0.9699435362067004,0.4688073555981155,0.5016644745229752,0.5240194478077305,0.3069370586418758,0.6467536302122338,2,4,1,0,S9
0.6850883542754889,0.421649327523123,0.7656599701675213,0.614537542159608,0.8137418790105576,0.8493228997785377,0.6401045872083161,0.9707013709331448,0.4672722850369633,0.502418985785751,0.5525045560362826,0.3026162268717682,0.6490095407278799,2,4,1,0,S9
0.6921625542826996,0.4341376265027814,0.7610540408400183,0.61366223202872,0.8116708296304411,0.8489702679246244,0.5490172149223044,0.9702554534569016,0.4701364170110405,0.5039665965124374,0.5428393211930815,0.297998119067979,0.6480258884207514,2,4,1,0,S9
0.6724655371198075,0.4171472393941589,0.7737316955789264,0.6154414846645883,0.7990013268977655,0.8482756525769053,0.5222918019041042,0.9679668858778075,0.4717009206223784,0.5061308422932058,0.5449887481228132,0.2909549520750639,0.6502515238081283,2,7,1,0,S9
0.683678607843997,0.4203316718456912,0.7662253965093473,0.607545120732158,0.7961241922850616,0.8481960275627095,0.5731251931705366,0.969763736438748,0.4693475297151587,0.5021623510218252,0.5354733335392374,0.2909040630964081,0.6506011890058758,2,7,1,0,S9
0.6829869271609811,0.4151107995581897,0.7669448237705112,0.6169259663944381,0.7963644994383157,0.8480886882898414,0.5209789917456841,0.968921908581408,0.4710198490612884,0.5056282695236156,0.5465401118186188,0.288269657262961,0.6490992307935948,2,7,1,0,S9
0.683844983565267,0.4294018566601789,0.766621426629742,0.6045995213601559,0.8003697803704355,0.8480083502158169,0.6290971215524764,0.9689942992196282,0.4668315189824568,0.5027731153363569,0.5508928680548059,0.288672030565711,0.6504193779115274,2,7,1,0,S9
0.6775648685810016,0.4200726565523744,0.7713069365029874,0.6169966092091921,0.7985279274965418,0.848050087984452,0.5528605218117914,0.9684360391630767,0.4705330616934536,0.509707021311655,0.5498032677822906,0.2897212650731529,0.6504714754950562,2,7,1,0,S9
0.6756586416628997,0.4126969366208776,0.775585155569914,0.6101363515497312,0.7809998428439087,0.8479605752072994,0.6503195467417955,0.9697452733445152,0.4703280552723524,0.5184414333069067,0.523295999219528,0.2830940020774719,0.6503805594976125,2,7,1,0,S9
0.7904321522105069,0.4423533882730178,0.6782835937922398,0.6342867750014742,0.7892077678678172,0.847900440495086,0.5956642784327796,0.9616844542766154,0.4387566830865994,0.3232544146338068,0.4762406432717579,0.2986792319703245,0.6503598519819089,2,7,1,0,S9
0.7370810835961547,0.3932592011898003,0.7285030887638106,0.5944127002214301,0.7940343432010234,0.8477400020336463,0.8471840025837973,0.9661520272359042,0.4463797830880144,0.3499904179468283,0.6513987959214916,0.2988584329629784,0.6506376739164452,2,7,1,0,S9
0.7243716720769737,0.4163034370917863,0.7367356182578131,0.6111921114639925,0.7985492343832263,0.8477064406843796,0.5572371357240757,0.9713200072094732,0.442938019398239,0.3805172638820406,0.5166404416161035,0.2984020976248523,0.6517133220092043,2,7,1,0,S9
0.7293362642632426,0.4067151978195826,0.7334824355784977,0.6137986644336277,0.7993746693859044,0.8474870084064522,0.3800041665394324,0.9745096085847142,0.4500375763914984,0.4122166689921877,0.5704278069523646,0.2970229764253633,0.6517027216749777,2,7,1,0,S9
0.7055354291271185,0.3986025189962532,0.7506043584975343,0.612945786282702,0.8001772247412962,0.8474278719779987,0.44287634556884,0.9737032447850784,0.4517319907962388,0.38513400887799,0.5297150559983183,0.2941275581834013,0.6515183252662937,2,7,1,0,S9
0.7068641745232577,0.4048392858881217,0.7504074987728869,0.6224989381379316,0.8004825873255388,0.8474351451882508,0.6030808217604751,0.9739401763656216,0.4520055470508229,0.4053987378598338,0.5549665234239598,0.2955466929276038,0.6505483101284147,2,7,1,0,S9
0.7077099597874356,0.4054614462209585,0.7499706117559903,0.6092628554527797,0.7991929529758589,0.847276845906297,0.682861815297908,0.9763959126947304,0.4547972733819773,0.4038452565874829,0.5518371882981578,0.2941865013599642,0.6518429388468383,2,7,1,0,S9
0.8707028360031859,0.3923249754511642,0.4775506965888196,0.6055185146505772,0.6723432509935556,0.8543998857583078,0.5386887242525967,0.6048005067145791,0.5918216904108184,0.9143563025299052,0.579306398156532,0.147414724170733,0.6803217376547884,0,4,1,1,S9
0.8708609099205044,0.400475564422327,0.4782742854516608,0.6175224581775148,0.6699571635519361,0.8550445869180235,0.5324379541104687,0.6078317809165423,0.5945833584998478,0.9132259653143988,0.5256460262012943,0.1480610413157692,0.6814020154331603,0,4,1,1,S9
0.8710014446570282,0.3994594758391279,0.4776323581476221,0.611077733905683,0.668339636671192,0.8565859370435672,0.485088580439785,0.6020528707385552,0.5987664777738845,0.9134219947604604,0.5373992024649352,0.147029775528661,0.6814059876882492,0,4,1,1,S9
0.8690526496556957,0.4062879090397954,0.4671216432430494,0.5997002572488294,0.6681778545120729,0.8576955532115428,0.6618543823995416,0.6010938879725362,0.5977279133558756,0.9133829080561356,0.5528365453147189,0.1462981834980647,0.6815595870233623,0,4,1,1,S9
0.8766736802007064,0.404987935311233,0.4975699064440896,0.6193364038511182,0.6660831515233712,0.8587090964519424,0.4609994048364648,0.6146132711558597,0.5933003428697584,0.9097764948602336,0.3698859919353534,0.1450097727761778,0.6815054588144569,0,4,1,0,S9
0.8723003312968293,0.4159492704431353,0.4723512263242551,0.6180437223199415,0.6667974798204981,0.8590503668859197,0.5080890231185813,0.6161246812937107,0.5938362518366843,0.9089980111225526,0.6273403820413294,0.1452419657866203,0.6839324537198126,0,4,1,0,S9
0.8704352170257224,0.4393950085734963,0.4718697288962648,0.624251586174759,0.6781629103219473,0.8590953371924446,0.5492541399227138,0.6200123846926786,0.5993997545425699,0.9048596853634732,0.5367711672187719,0.1459543256308162,0.684031689767522,0,4,1,0,S9
0.8582717556370862,0.4317462108720069,0.4312155250068237,0.6552123169088527,0.6803627264416559,0.8592213586328226,0.6645500659695093,0.6155168683220972,0.6005878848816337,0.9081591814920184,0.6085707743060007,0.1459022865958863,0.6842179290039818,0,4,1,1,S9
0.8694433722971138,0.428874738358837,0.4713245806209211,0.6141275382330026,0.6739109716541751,0.859594574147122,0.4796772170066914,0.6167187034648658,0.599174994512809,0.9074243941999058,0.5490267223502259,0.1465813385096338,0.6842041655313377,0,4,1,0,S9
0.8719188028580667,0.4299624292929822,0.4759760882096167,0.6134985765841521,0.67318275740649,0.8594951736070126,0.493365237757157,0.6132222011100024,0.5995071437849412,0.9087498153285934,0.5454068264992731,0.1477142726113086,0.685266809266071,0,4,1,0,S9
0.8716263538597564,0.4268131081832053,0.4784297814461868,0.6127671552695871,0.6692130749165099,0.8600092897434471,0.5464291535233079,0.5862350283067728,0.5990267163139835,0.9199245392390264,0.6213148379740424,0.1464177175590017,0.6852751740345793,0,4,1,0,S9
0.8711012775887952,0.4242435120987008,0.4723982701345534,0.6122681932858117,0.6679309999890328,0.860466979078777,0.4985335849095593,0.5934564586695794,0.6069536217903125,0.9138284047734272,0.4704174999907421,0.1474039370594934,0.685270265705228,0,4,1,0,S9
0.8704935217382902,0.4275071813264658,0.4712434767849989,0.6144716751834208,0.6680093917299548,0.8605609128268671,0.5691635589807339,0.5911465398351743,0.6101214664352217,0.9133932483095144,0.5738963376700099,0.1468093724339434,0.6852819926647609,0,4,1,0,S9
0.8716970764711158,0.4278793869011538,0.4736956996386354,0.6120295020351781,0.6662723666611657,0.8606945877760722,0.6136919853977347,0.6008285175451172,0.60464805915039,0.9132865949389626,0.7457995183491691,0.1477648258800185,0.6854255772143336,0,4,1,0,S9
0.8714416365115862,0.4187166645831753,0.4760895634576346,0.6182771558722645,0.6659424189911186,0.8608351080996324,0.6036897435140863,0.5889279720628389,0.6113093110222393,0.913759782205125,0.505097401951385,0.1464886436773127,0.686430753408671,0,4,1,0,S9
0.8708637424181843,0.3990627108146924,0.4722138074339386,0.6039039075347304,0.6649210869405697,0.8613798858086975,0.5058129248832779,0.5914670735451819,0.6259120092946443,0.9089340158684652,0.6304763054897877,0.1461454344839098,0.6879900527361889,0,4,1,1,S9
0.8584512859605126,0.3817872426364753,0.4313536870450121,0.6203292767309121,0.6644448475508593,0.861442635073616,0.4577846930066038,0.6066637166048777,0.6291807797396188,0.90618532023436,0.4536326119920634,0.1450536177782229,0.6875804998846123,0,4,1,1,S9
0.8537455283503675,0.3819045172198715,0.4161083821835125,0.6079397047678374,0.6652966367450169,0.8613515535648403,0.5078569013878038,0.6024215242619022,0.6295242274784637,0.9015945139666364,0.5595092819952656,0.1459881170973478,0.6866276955666751,0,4,1,1,S9
0.857038805130625,0.3866958954915371,0.42579366527078,0.6091466115134792,0.665068751379136,0.8604693559448724,0.5050661961336845,0.5741393495075549,0.6250958826425973,0.9325277370782726,0.5720874696196142,0.1449534384411503,0.6878501329719491,0,4,1,1,S9
0.8451131879101882,0.5337811522970397,0.3994911061018008,0.5989521469384631,0.6816883976270935,0.8591684495935392,0.4074400995136554,0.6419013376692019,0.5875138180926478,0.8965246071764683,0.7049540956804003,0.1432901931344328,0.6865530825161305,0,4,1,0,S9
0.8315505173509827,0.6028157724321312,0.3916381532333249,0.6424846744507878,0.6808381825250522,0.8592112331832564,0.6034258583538503,0.5805938504262809,0.5002310790729868,0.9330050734704384,0.613023891828838,0.1462115170889025,0.6867187626369466,0,4,1,0,S9
0.7971999033121777,0.5004049314505825,0.3306158723532607,0.5787470388367245,0.7062894733793481,0.8593215197700828,0.542960988863657,0.8113591423292126,0.3920648030146542,0.7776645147506422,0.561491359940939,0.1458843356938389,0.6878140830920478,0,4,1,1,S9
0.8338657737502823,0.5005071066690587,0.3782247323282693,0.6184766047274667,0.7441872241484104,0.8593332614885941,0.5633033409698179,0.7443247574282076,0.3703998438310328,0.8073840232339294,0.5235121482679184,0.1634211710626525,0.6908076760481203,0,4,1,1,S9
0.8530540330574959,0.482270117276156,0.4058056940603664,0.5303855053029163,0.7558108927719653,0.8593873114236035,0.4362930350981512,0.8701524619840215,0.3821258936806612,0.6917914597031171,0.5650696945212983,0.185770417804494,0.6904598381532671,0,4,1,1,S9
0.8176880897697976,0.5298551953769176,0.3545192312210552,0.5638811752722973,0.7829528059981474,0.8592231175137331,0.4788245823880039,0.9191798585297076,0.3807634457156443,0.5956212807092948,0.5561830662406393,0.2149285823365191,0.6903623409370856,0,4,1,1,S9
0.8083109115980518,0.4914612793121223,0.3554584697245155,0.6880217704612459,0.7859141828215912,0.8590826447274951,0.7084080637561508,0.9596241220625604,0.4010650984232092,0.507138099573144,0.5508852448757239,0.2434199945599988,0.690690974355178,0,4,1,1,S9
0.7799789461080591,0.6465226662136371,0.6447370738210454,0.5417885200172606,0.291847511702751,0.8417277703529099,0.497806109483792,0.7714007060441186,0.5371708887056973,0.8068005069268549,0.4574165368195569,0.1726487506183015,0.8969423216766192,1,4,0,0,S5
0.7745497750567661,0.6482641145032666,0.6511421532697865,0.6023152817016666,0.3002140348799493,0.8419424511260875,0.4944956114467141,0.7709450828267893,0.5372666882446695,0.8072520983112869,0.4564811504931236,0.185333837498715,0.8944486731138597,1,4,0,0,S5
0.7742036806291757,0.6489761477412604,0.6521725060177896,0.9613909292049918,0.3243370612356063,0.842083278655978,0.5423795390593719,0.770848781634471,0.5372919978894256,0.8073036435388652,0.4580058718093553,0.1877983145428367,0.8954666301016119,1,4,0,0,S5
0.7750025592890374,0.6504847953204058,0.6504483411486655,0.3686731921008287,0.3552400146606059,0.8423667967665274,0.5332619991516394,0.7708266828212168,0.5373183317979265,0.8073131627318351,0.4621063905233981,0.226287787566015,0.8920794896888903,1,4,0,0,S5
0.7771235370972016,0.6516454370872411,0.6482151722938684,0.3624351952000898,0.3692863169616353,0.8425339936303726,0.5723635034268922,0.7708375436254693,0.5370592299046718,0.8073131627318351,0.4574663117029185,0.2380710115101122,0.8916339013710611,1,4,0,0,S5
0.7722445637458252,0.6510428629525824,0.6548950707505172,0.8505582850904745,0.3755100801277312,0.8425827195735506,0.4203909643497757,0.7708206977178166,0.537260217713142,0.8073131627318351,0.4570146475090856,0.2496298693628945,0.8918804782085263,1,4,0,0,S5
0.7865597869299926,0.649251751148526,0.6344875417199471,0.7924735946988437,0.4366271547708033,0.8430900426289899,0.5864423671092525,0.7709279459086266,0.5372917805391366,0.8073289800076279,0.4503128859973433,0.2729760048101642,0.8883868891718648,1,4,0,0,S5
0.7797755973893515,0.6493457939099787,0.6449437363357295,0.5695336546744595,0.4243521618914918,0.8432940228028817,0.6200188763904477,0.77106765616496,0.5372937780940055,0.8072874229182466,0.4617995986687615,0.2701566685798643,0.8886763062893679,1,4,0,0,S5
0.7820295982697667,0.6495078875332563,0.6419057127184038,0.1542927382480245,0.4346081080333174,0.8436271744967268,0.4144072810721891,0.7700854582047156,0.5372930671915787,0.8076229975720527,0.4563010946219927,0.2887308514911187,0.887128539046185,1,4,0,0,S5
0.7790571764525139,0.6507153764540113,0.6465589533091395,0.4407082505404784,0.4570801916652784,0.8437026041675872,0.4627781214422686,0.7696411057690348,0.5372930671915787,0.8083428355687282,0.4583911125265852,0.2927006108570527,0.8868112807776719,1,4,0,0,S5
0.7808393491714283,0.651077416984309,0.6421533313087111,0.4405577121325912,0.4465922345152678,0.8444470123759596,0.4005573796323578,0.7656713823912586,0.5372930671915787,0.8106337216681149,0.4585619484203189,0.3042214069922556,0.8864414274556922,1,4,0,0,S5
0.7866135121347283,0.6511520075778965,0.635022011933868,0.3379940162732769,0.4477245450920625,0.8446674256130403,0.4119278608743865,0.7660242171218937,0.5372934752662355,0.8102685541055645,0.461379342579887,0.31896205557063,0.8842272630551377,1,4,0,0,S5
0.7845562570527731,0.6504003663419237,0.6373921244927226,0.3192758012070337,0.4717116964434528,0.8448333326725075,0.6348062684648782,0.7684874523682041,0.5372920555077152,0.8087407331266279,0.4538615885671999,0.3311786971580432,0.8851274435195728,1,4,0,0,S5
0.7805424869320721,0.6513713665541614,0.6445371954803231,0.1671770258639893,0.5214163316506425,0.8454837284728662,0.427083236484308,0.762964812331581,0.5373041593445558,0.8143641201229401,0.4612054533342783,0.3644361214468398,0.8840532111995701,1,6,0,0,S5
0.7836318431514881,0.6521533744942392,0.6386054966196083,0.8124282730204426,0.5422826761949894,0.8457783771174946,0.5443455297585922,0.762945811238932,0.5372753962954053,0.8117297814880274,0.4602252239877561,0.3863680936717112,0.8841079753496833,1,6,0,0,S5
0.784167952551198,0.6526778511442898,0.6378904918874797,0.6043041629251078,0.5026726808756665,0.8464626422254149,0.4443528377658735,0.7628391607959755,0.5371941591306532,0.814710237306612,0.4575017506326183,0.3632013469181532,0.8840843111085633,1,6,0,0,S5
0.7889649911815925,0.6500723184005232,0.6318624531119206,0.5846067425314387,0.4966865915090878,0.8466275938742316,0.4212898676319797,0.7620870200599377,0.5370839962428854,0.8152355407172716,0.4583887706297362,0.3736002442727096,0.8830121527420656,1,6,0,0,S5
0.7786369962111697,0.6470050015804574,0.6474990585943641,0.5084591806730134,0.4829843727913194,0.8477639115314579,0.4740064141651063,0.7620828289588157,0.5372380403554428,0.8153396955354625,0.4560616163848031,0.3615931037558858,0.8828919851238022,1,6,0,0,S5
0.7850722575505218,0.6470553389642196,0.6381719424521998,0.425560058775761,0.4793991822576421,0.8483199605300753,0.5179167789814365,0.762046840954,0.5373115668619127,0.8151409031622217,0.4610730561268534,0.360434739908763,0.8827380191380994,1,6,0,0,S5
0.7905200299429703,0.646772695813385,0.6275729917080721,0.3606298265968199,0.4951247064201468,0.848842092450598,0.716516213161393,0.7620741044506433,0.5372830953764268,0.8151515974311476,0.4534311464113788,0.3722482352528591,0.8828562660870193,1,6,0,0,S5
0.7861787700182729,0.6476754162343212,0.636827880808307,0.673087810000064,0.5069257320665082,0.8492404986918757,0.5837387890387005,0.762048351195633,0.5372994381571077,0.8153508258976708,0.4587795063631777,0.393772874245323,0.8806141092661328,1,6,0,0,S5
0.7892372497614744,0.6459842628767837,0.630844726916014,0.6053945731528599,0.5011100701715727,0.8493404346459226,0.4016385936932962,0.7620799785676541,0.5372887204596193,0.8152762025819429,0.4586832218556596,0.38804151450292,0.881228061558978,1,6,0,0,S5
0.782945647344032,0.6474446368262835,0.6407054652848955,0.4989182014165424,0.4953514000124448,0.8494146222829375,0.3810312352808919,0.762032871782767,0.5372960650304406,0.8153181949150237,0.4583702081816498,0.3825853271526978,0.8816284865206488,1,6,0,0,S5
0.7791405796085614,0.6468805875977314,0.6449310397685151,0.2963344366177836,0.4987007171892432,0.849440657223165,0.3957985638550795,0.7621153414689913,0.5372910518592066,0.8152911909682488,0.4597263706700669,0.3831781208246778,0.8803719436599455,1,6,0,0,S5
0.7772027265474998,0.6466864031616731,0.6502169056979075,0.6866674537519015,0.5105284590576903,0.8495768032408674,0.4145971262406686,0.7618998789860123,0.5372944902217955,0.8153082939757245,0.4568977657201554,0.398354201708086,0.8791680858462143,1,6,0,0,S5
0.7887471055615508,0.6445745929435167,0.6333151650801507,0.408247683367666,0.4934576928831744,0.8501325656162897,0.4033653024332265,0.7621202671000163,0.5371449489575318,0.815351307086324,0.4554036109556507,0.3825188122954899,0.8788944911729174,1,6,0,0,S5
0.7870872848327352,0.6482565885558158,0.6342518993804808,0.3752739509182156,0.4946383452618829,0.8499206555339988,0.4465569035817495,0.7611288337615842,0.5375903026189238,0.815695558073325,0.4569476430172079,0.3708937218544589,0.8771465825260989,1,6,0,0,S5
0.7821797907982946,0.6451956424428679,0.6423650915137977,0.6418241106267472,0.5036077437970128,0.8499326937081958,0.4276126698583817,0.7637150315796678,0.5371432782186514,0.8146197320087099,0.4633580709198356,0.3931832368282529,0.8764132124571492,1,6,0,0,S5
0.7860654110957073,0.6425658701001979,0.6372224868525557,0.5828784657128521,0.5240971498707865,0.850085750494413,0.5335645456103831,0.7655029586550575,0.5368738012353431,0.8134722939210987,0.4691243635433302,0.4141814440749647,0.8774136245578814,1,6,0,0,S5
0.7835460948781926,0.6475109667122937,0.6369236791964484,0.6106118887131542,0.5098456878826614,0.8503264662078177,0.5084410584708555,0.7542777406941995,0.5381698705509561,0.8179926689835022,0.4344966473806146,0.422555020733298,0.8769304317909712,1,6,0,0,S5
0.8172942875440318,0.6845567069942227,0.5787921871756699,0.4637699787140663,0.4923139980795937,0.8506885668443747,0.399400714003496,0.7171729401782843,0.5457430050383021,0.8491256750822419,0.3945257765475521,0.4035055276204898,0.8763385112900187,1,6,0,0,S5
0.8519902115464789,0.5957351367080921,0.3507993995443256,0.6334522956271669,0.4957318411255612,0.8500943014197355,0.3622149347269437,0.739327020202973,0.3476845215443876,0.7798309895491539,0.5310057027985519,0.4533816449557418,0.8750669261872289,1,6,0,2,S5
0.8400253031768367,0.6804128850689919,0.5211676268213902,0.5218766344147371,0.4828418819219087,0.8496866754656803,0.4343211076619841,0.678835094622435,0.5963409346693815,0.8172834480074238,0.5801122403320886,0.4521882588732677,0.8736972485494284,1,6,0,0,S5
0.8256092358258127,0.6126793099985521,0.5621872717695653,0.5180183402546796,0.4791719934474723,0.8489739391203734,0.4619216239809808,0.5569828248797133,0.5402810962780741,0.9220852765844056,0.4540854183896109,0.4180290616227348,0.873986871793463,1,6,0,0,S5
0.8398681135425613,0.5926309480177554,0.5254789373805002,0.534533949380956,0.4782147534994503,0.8489550219894925,0.48994889103783,0.5734971244519007,0.5418679833063507,0.91535423117787,0.4503848568041229,0.4161466905793729,0.8711263685905195,1,6,0,0,S5
0.8474318536738855,0.5795893863514736,0.500730460147109,0.4537226083389892,0.4784776374374204,0.8489992575026127,0.5566696247966259,0.5784762802314343,0.5458176444476223,0.9116520055226998,0.4573086074095149,0.4178954913647366,0.8713850610054541,1,6,0,0,S5
0.8296545842417615,0.5944827337405001,0.5652039306365961,0.5360589882352966,0.4765439633516935,0.8492297980925894,0.5191400549011672,0.5636193970462867,0.5612660996317141,0.9163807109799522,0.4662281150711817,0.4179051140573492,0.867360190583386,1,6,0,0,S5
0.4692943336172298,0.6880121608228607,0.8933918977036972,0.4934241404745526,0.4395804538226775,0.8444906746426897,0.3977789194600515,0.7856716496546,0.7908560125606561,0.2278722448903091,0.4537831057665271,0.1857691986098391,0.8597366206560189,0,1,2,0,S5
0.4671261668632828,0.6905102907771133,0.8945874471792457,0.4632725237441785,0.474495157156607,0.844445770342114,0.3441245243129283,0.7809828926475408,0.7862897461504035,0.2165213705917676,0.4613988985479412,0.2002273081817273,0.8568668994098231,0,4,2,0,S5
0.4471065733000502,0.6931666111129924,0.9051847117621504,0.532840734818758,0.5024132890735744,0.8443598789246299,0.3209564255504819,0.7862396184857272,0.7831248487820966,0.218351271286258,0.455917713582295,0.2090690843721097,0.8564404183620049,0,4,2,0,S5
0.4930734397802531,0.6909154369970192,0.8803943610112905,0.6774850196489132,0.4915658084013229,0.8444297194431847,0.4738239426835617,0.78476163102173,0.7825454892992914,0.2141622101564791,0.4539923532122682,0.2104093767915769,0.8566006007692013,0,4,2,0,S5
0.4996122228063056,0.6868736921544693,0.8767401668100323,0.5021097046161038,0.4730036932906913,0.8443347516245205,0.5748419627504052,0.7761320056317614,0.7807549016412075,0.2007221193725496,0.4607905397974982,0.2010657579504447,0.856565077909363,0,4,2,0,S5
0.4507163908943147,0.69119952379232,0.9034647407089677,0.4677341476116109,0.4644997638372808,0.8443879679977561,0.3839506325794365,0.7746688169827364,0.7759046048973179,0.1973966571754402,0.4590165134821741,0.1899255837915088,0.854623349856001,0,4,2,0,S5
0.5052669553002833,0.6874701262356441,0.8735123894849424,0.4792086394986139,0.4720951040148363,0.8445147987616157,0.5058379187564321,0.7741509429445061,0.7755988285807881,0.1952273755097421,0.4582953317610744,0.1910407216340563,0.855143706171683,0,4,2,0,S5
0.5109715982272591,0.6918246318475689,0.8701499958986869,0.5904395051287589,0.4704822046269165,0.8444546556611641,0.6600424369072753,0.7698604686362231,0.7743651885605931,0.1871873452824223,0.4577578570815538,0.1920254962100155,0.8553101641331686,0,4,2,0,S5
0.4779066137877296,0.6998809905813753,0.8886770689615386,0.4930674490576159,0.4645567991609219,0.8442331914723674,0.3310670036324482,0.7608762443899189,0.7599062891139956,0.1604104150913515,0.4656141154303705,0.1893486429587099,0.8536051048867352,0,4,2,0,S5
0.4616544244023594,0.6937917915733,0.898037776621017,0.5293190939797644,0.4616319743666275,0.8441807871981852,0.401913621474075,0.7509411876423743,0.7549379723052552,0.1459502773435858,0.457896105633708,0.1900443223700704,0.852099625417853,0,4,2,0,S5
0.438767754531786,0.6890461318887958,0.9097876693173008,0.7533604239027066,0.5072368484430401,0.8441082237592763,0.3232274415608285,0.7467244238233688,0.7552760100895912,0.1432128011984033,0.4389059746317781,0.1943197671345256,0.8521487820753805,0,4,2,0,S5
0.5122264381967386,0.6882263088008398,0.86936119603093,0.5495260549466577,0.489297868223925,0.8441199753102778,0.5239396069593794,0.7462106098358936,0.7534591330854408,0.142198076591105,0.4884764459187167,0.1870525942967685,0.8509149308687906,0,4,2,0,S5
0.4710343956906865,0.6884223918625453,0.8919869305504367,0.554948394171071,0.495295324025326,0.8442308029457414,0.4835466247415123,0.7478433502302014,0.7503240263704056,0.1393733017073397,0.2586361902012709,0.1786111072999923,0.8508865764169724,0,4,2,0,S5
0.4842764400135093,0.6897070341836469,0.8853310653620468,0.5153048617664052,0.4819928625918978,0.8442394016415963,0.5005945948949235,0.7454348693562471,0.7525096954646544,0.1405976008727667,0.5123819195796296,0.1744468243267193,0.849919526336221,0,4,2,0,S5
0.4652388648544767,0.6899184331208916,0.8956214080917211,0.5004849572346567,0.4790784609360318,0.8442722677679748,0.3878488180516192,0.7508859755506604,0.7500918663608653,0.1429194051856518,0.405710236470247,0.1710753406699828,0.8504588840352438,0,4,2,0,S5
0.4295485305488802,0.6746813678341451,0.914756258323158,0.5236004750628914,0.4813111358531196,0.8444340665616445,0.3295686867072007,0.7274646661930722,0.7461953173351317,0.1185764378219793,0.6060603208648623,0.1756123945898925,0.849820109423428,0,4,2,0,S5
0.4682096701248587,0.67415469345034,0.8940232860906026,0.542055301657423,0.4796563693557488,0.8444069328991693,0.4601304141776774,0.7235814747482493,0.7412854169780534,0.1107683637230365,0.2656693969294318,0.1728177648695884,0.8504332179575119,0,4,2,0,S5
0.4673609755338614,0.6791058025433105,0.894440568667688,0.5041742785190092,0.4788576862731569,0.8445374897645663,0.4351374804312874,0.7293313155000674,0.7437964436859549,0.119394127950649,0.3911553521410388,0.1643346645873888,0.8505783292074394,0,4,2,0,S5
0.4344333426556511,0.679993783885094,0.9128417061023546,0.5431989158839297,0.4833793111394736,0.8447312948150292,0.3695232256744846,0.7203041095023379,0.7468026715749847,0.1123034902230475,0.5332752282169135,0.1710588895225051,0.8497602695342981,0,4,2,0,S5
0.4700246653948014,0.6810008324469126,0.8925959381782833,0.5355829262639472,0.4797059463588671,0.8447941608358353,0.4640577666919444,0.7224753001364856,0.7442963615662791,0.1138488844117777,0.3983515838227713,0.1731813730905801,0.8504694545515787,0,4,2,0,S5
0.4946253703962093,0.684400323618075,0.8798453271958386,0.5045895554998078,0.4742714433498102,0.8447673615670875,0.6095814450951014,0.7223720537285712,0.7390546184217914,0.1064321982199667,0.4727621541791069,0.1669095384556292,0.8519886623667832,0,4,2,0,S5
0.4486618557564664,0.6814057201566522,0.9069612441195344,0.5213654161349313,0.4721251625379616,0.8448972974155615,0.3888627601373612,0.7177741991112467,0.7390592788681609,0.1000861844725341,0.5107723805525631,0.1629356702263043,0.8518295581608181,0,4,2,0,S5
0.483816253843887,0.6694234778897531,0.904507220856728,0.508127737516246,0.4694519980463553,0.8449587303203916,0.5305202520170013,0.8500539843101228,0.7226517712846114,0.2325008953565918,0.4259604474053711,0.2260573243530665,0.8520908540401277,0,4,2,0,S5
0.8229109395773402,0.7891862691690804,0.5629692291432036,0.5031793597472725,0.5546375903019527,0.8444258500300499,0.6177538111691213,0.7939957217898217,0.5669576181604804,0.8072008997088458,0.3176988590997526,0.2602352256844569,0.8518130608989457,0,4,2,0,S5
0.8370200292218272,0.3663595888799404,0.4324050521687568,0.5394453532673237,0.5544989130084691,0.8463599355804816,0.6604279361354588,0.3850727487691898,0.5585883564457328,0.872048871553033,0.3976853843142037,0.2639267071538495,0.8509319920996068,0,4,2,1,S5
0.8037034150730915,0.7200175138300597,0.6145534549737994,0.626290823677507,0.6618651255266013,0.8445949577151964,0.5273179065354068,0.6666617692164916,0.6037455249781195,0.7148579588137225,0.412827642609809,0.3186786026505849,0.8529692616397484,0,4,2,0,S5
0.8487037188953155,0.6001766270897099,0.506706190997557,0.2909079204428509,0.6481663704370855,0.8433702168022623,0.4967374867967171,0.8391188046471278,0.7574100527658492,0.3939165451004509,0.4293276475696831,0.3173256095576807,0.8520480699283024,0,4,2,0,S5
0.8462713378076446,0.6060713185483504,0.5128473505146806,0.8640630990876894,0.6463542560033032,0.8432391822315403,0.3946702421192139,0.9066056724983138,0.7423742587448707,0.4414924752582649,0.4161479803559825,0.345305798987533,0.8542442562739339,0,4,2,0,S5
0.8442147654309082,0.6531106096952941,0.5240781533340064,0.4526338448557124,0.6301815429572147,0.8432043575133279,0.3520758415739972,0.8156868261571951,0.726204280271418,0.6439542793131733,0.5608268909920692,0.311358918132959,0.8525425238563434,0,4,2,0,S5
0.8536851007080862,0.6623922509024623,0.475658252715918,0.5227632128790486,0.633566920253761,0.8432925896869057,0.5062328378975071,0.6854159000196284,0.7550289826098147,0.8071621701439572,0.3488925000585884,0.3167598501111116,0.8529985241425871,0,4,2,0,S5
0.8448203537893421,0.6912415330967833,0.5149164289551622,0.5023582456209748,0.6128067268447515,0.8437444989246135,0.4250800077734529,0.7607448342556671,0.7267033667826052,0.6986731922933485,0.4630930015234974,0.3320745949386071,0.8543328610332167,0,4,2,0,S5
0.8291975377832826,0.8606466440190624,0.5159208141626577,0.5803604956249993,0.6025595659609889,0.8446780784417938,0.6315571463626185,0.9284815888878212,0.6422727590429718,0.4881293230366574,0.5008446530984051,0.3151202775425456,0.8531851110223043,0,4,2,0,S5
0.8288291665163569,0.8598814066025764,0.518977564298856,0.8938781399576812,0.6594937758605294,0.8456701290907879,0.4191600760191358,0.8140685720308897,0.6783598321978843,0.7317028439429563,0.4706518758767661,0.3584804081437909,0.854408531865044,0,4,2,0,S5
0.8279834778018241,0.8709454008874651,0.5179301496787563,0.7455733791461517,0.6322240979402417,0.8459881375258217,0.4093231783804109,0.7899049744854886,0.6762572269065514,0.7339842674372676,0.4179422748420465,0.3627986301705065,0.8535858274780341,0,4,2,0,S5
0.8277515911632558,0.8673401105772034,0.5190670825575457,0.4348620019716068,0.622333653688531,0.8462684072401593,0.4281892139877167,0.7277811223718627,0.6790634673680249,0.8185140808081615,0.4601212447463931,0.3569800166497579,0.8543529769623217,0,4,2,0,S5
0.8182382436631338,0.882212839402247,0.5427228894273031,0.4974814055622257,0.6170834392163965,0.8474286579341814,0.4760502513042965,0.7895916775127836,0.6290015526664606,0.6128466835776217,0.4174664410122167,0.3405935861688501,0.8535581344534499,0,4,2,0,S5
0.8372280182450536,0.7905189244005782,0.5121323454067027,0.1511902334810194,0.6236650725749142,0.848178894147522,0.5869446574360113,0.8755545956683415,0.770441585514819,0.3962839965832526,0.4322931132011078,0.3449058381978895,0.8546537128096554,0,4,2,0,S5
0.827420772128968,0.792007517710955,0.5461933035798983,0.3590603345258454,0.6696095937443445,0.8482787823310365,0.5473437365866362,0.5567266934611093,0.688827805391246,0.8589884621667037,0.4619773814636227,0.3417701537723213,0.8546021731473837,0,4,2,0,S5
0.8422960720840426,0.6745396016563077,0.5013520497511941,0.5631061365600545,0.6465839090064498,0.8486340995519743,0.5971867158900687,0.8601567795729486,0.6413368084123972,0.6206023433756116,0.5433916454557246,0.3916126325756565,0.8547080677249176,0,4,2,0,S5
0.768331094778816,0.0524462259259678,0.3824024757920002,0.2127258520912138,0.6568935513816676,0.8495456090831272,0.5957203281271021,0.5774239911810624,0.0,0.6636752266422988,0.4273569379399238,0.3604116058523282,0.8546313536563599,0,4,2,1,S5
0.831159582426034,0.7136933899056911,0.3420604358764315,0.4791286598234187,0.6963449262378738,0.8500476773799889,0.6667943860859169,0.7164151127764,0.2897753686668121,0.671990065076949,0.2760910611990105,0.4017912760227227,0.8546049587388305,0,4,2,0,S5
0.8169010154943698,0.609921139561306,0.5867265340027625,0.5233630887243652,0.5525611997126024,0.8539298930174148,0.5034971816278142,0.5475197083091803,0.5985919508113441,0.9168121448514266,0.4538176977377448,0.2923437206833772,0.8920089960034181,2,2,2,0,S5
0.815720173393009,0.6078818518531682,0.5895463619303902,0.4948272254085137,0.5480256809777657,0.8540392397663696,0.3842023141520335,0.5441978969548174,0.5983949529063071,0.9177841964604522,0.4607575095902398,0.2975968110222229,0.8927884874256685,2,4,2,0,S5
0.8129640068886341,0.6130865068171415,0.5924818752676425,0.2740026712986073,0.5592542046382997,0.8541647807258513,0.5140510688397749,0.5437904428690545,0.6007926990843059,0.9166691656502732,0.4497283384177095,0.2893287568510365,0.8909858916474294,2,4,2,0,S5
0.8139125870637696,0.6181469926621025,0.5924998401230588,0.564698052340939,0.5874293282354274,0.8543761653322843,0.5925078702302519,0.5392980510911831,0.6067080886516963,0.9161457180295116,0.4745460012402024,0.288594248303947,0.8914006082190523,2,4,2,0,S5
0.8226829161656217,0.6045017355927003,0.5745148610574845,0.3783652769093117,0.5887985912870035,0.8548809565495,0.3984937575762896,0.5493247898433741,0.6161168528313528,0.911195668486856,0.4270014457724718,0.3326356118415453,0.8931687751955376,2,4,2,0,S5
0.8201147436909334,0.5944544411366753,0.5805575376659358,0.6000409573588763,0.6134616482309199,0.8553985024989003,0.4757721306052142,0.5626013246000638,0.6223884946575068,0.9057834500240324,0.4107507222606995,0.3566667826456334,0.8932602720983547,2,4,2,0,S5
0.8215134788704687,0.5991297252169061,0.576135231458315,0.3946755024366166,0.6136292290942825,0.8556250303641445,0.3881156899285691,0.5841287601557201,0.6247806915900826,0.898943236985423,0.5051824823405385,0.3514370478164857,0.8940935420213323,2,4,2,0,S5
0.8337650209171207,0.5927512949752224,0.5504791455363423,0.4939422742406574,0.6127214480215775,0.8560443123281365,0.4337532153375227,0.5889446256297128,0.6246076070618494,0.8971611039046117,0.3820958740513361,0.3608124733646436,0.8940495561747172,2,4,2,0,S5
0.8392610217835943,0.5934412512193278,0.533435407876186,0.5059206529775571,0.6072823669665905,0.8560826720657557,0.557915079288161,0.5967486727565792,0.6286662324732579,0.8924490892044367,0.4632000578071996,0.3640119647301696,0.8944376204280821,2,4,2,0,S5
0.8373177002127566,0.5916095443785714,0.5413651089595739,0.4162887890086227,0.6238043171750188,0.8560373856009202,0.4774224396380619,0.5728446916017652,0.6245926928715615,0.9026366372180176,0.5342977000575964,0.3592478988027655,0.8921328826091756,2,4,2,0,S5
0.8581854064258297,0.5996725612956588,0.4580585096259818,0.4802179589986902,0.6424757392080565,0.8560005067498089,0.4388743698796699,0.5030059600384513,0.5904031450185958,0.9294727255395104,0.4755947708940252,0.3755150877743157,0.8933336543148902,2,4,2,0,S5
0.8580415911240007,0.5967524459419182,0.4501488753048933,0.5118525803428347,0.6468758633240672,0.8560193283396247,0.54716592465316,0.5118971562435896,0.5957316354697336,0.9246119066159082,0.4580205639544367,0.3675588739942745,0.8918821748645531,2,4,2,2,S5
0.8579542984449966,0.5990537496058113,0.4612863744057557,0.5775343190107876,0.6398071213540973,0.8561695188938904,0.455617709960246,0.5073732557444811,0.5971396985291963,0.9278713937809424,0.4443266994907974,0.3730454048290397,0.8928412150265962,2,4,2,0,S5
0.8580794898452618,0.5997942166116031,0.4559605150790776,0.5073439579981708,0.6325372777575218,0.8562305696344604,0.4480827776194893,0.5111767012889713,0.5990499139458395,0.9257196061813084,0.4552036548306367,0.3723665063539145,0.8931157816205768,2,4,2,0,S5
0.858243065373391,0.598094260091803,0.448974591708116,0.5078887013606013,0.6278004248070689,0.8563735946088468,0.5497921557384734,0.5093007245147289,0.5973130903514619,0.9267080561208688,0.4511301021282158,0.3710152673279597,0.8919482100422672,2,4,2,2,S5
0.8580619424033403,0.6083286494390742,0.4576711006763879,0.5165833525264627,0.6268570560027713,0.8565911893845086,0.4849054017370295,0.5100019767007937,0.5981832690011766,0.9269699599846224,0.4546934628369019,0.3670663855391894,0.8928049205128534,2,4,2,0,S5
0.858142531273739,0.5970561233162309,0.4493114718757701,0.5231988427560105,0.624210804859083,0.8569279716388258,0.5206216876201123,0.5083987527784972,0.5984892384880143,0.9266575059974004,0.4587012769670888,0.361305811307979,0.891920925584389,2,4,2,2,S5
0.8585939855730663,0.6028030733347486,0.458680933790731,0.516317713766575,0.6311395106981749,0.8571271269889319,0.4046193181516553,0.507315568580782,0.5987829358901702,0.9274637456789376,0.4621151241935217,0.3602587985873399,0.891776761724619,2,4,2,0,S5
0.8619041633611116,0.5839775318851269,0.4377317713877142,0.5223427776862518,0.6249506159286706,0.8575028899977915,0.5056888344667597,0.5034745255528092,0.5987672072161537,0.9268319242838656,0.4682613569683616,0.3591869578333426,0.8920457804932267,2,4,2,2,S5
0.8492326869743211,0.4905093364971976,0.3735713671846932,0.5143431136970407,0.6302395597444689,0.8576938765868356,0.4322699612979904,0.5261564496091413,0.6016308061332711,0.9213090016108249,0.4313995223160337,0.363039616861771,0.8905956099792799,2,4,2,2,S5
0.8408298675429586,0.6185406656390477,0.5436285108434413,0.4623622656242023,0.6538537468888916,0.8579837959487434,0.6423937841584657,0.5460125838485987,0.5809872694088142,0.918444315371705,0.4969719419615507,0.3544832290242503,0.8918203268464369,2,4,2,0,S5
0.834503980100371,0.6080716757088984,0.5490494179353524,0.5798332129223305,0.6694082942386484,0.8579997035360751,0.4667210631306613,0.5505034085076131,0.5985452055885621,0.9153480802909092,0.4794184518789081,0.4342769643000338,0.8917772296729785,2,4,2,0,S5
0.8323619251444756,0.619744116254658,0.5558777721497172,0.5103983401809096,0.6485607116671664,0.8581014547703583,0.4460407516568594,0.5557087834713644,0.6002260237835685,0.9105373306594118,0.4528316720542408,0.4065180310714955,0.8907111361642503,2,4,2,0,S5
0.8322987390339875,0.6186432882858237,0.5522109897708711,0.4890937042063272,0.6450001141060808,0.8579790666660232,0.4254160081205158,0.5504925235979701,0.5967042375444439,0.91524665080179,0.4486820152809618,0.3964079760574094,0.8904185361488435,2,4,2,0,S5
0.8322114968653465,0.6110103232823231,0.5470396542677758,0.5009099116727326,0.6379617858601302,0.8581938907507983,0.5729512303407821,0.5502097819391059,0.5944026422596244,0.9165765807547444,0.4673746160662244,0.3885916131152414,0.8907297563785733,2,4,2,0,S5
0.8300447526544307,0.6294606047057298,0.5739300504243026,0.5230218678185152,0.6361640952761318,0.8582269001887749,0.4643739611766695,0.5552077853179773,0.6053639300776222,0.9081042835205796,0.4536444599717903,0.3870040734733811,0.890410620276136,2,4,2,0,S5
0.8301016434139339,0.6236630107828617,0.2799720505307388,0.5147089843785294,0.6537245985022185,0.8587289207151039,0.5223997339628733,0.6205910415732743,0.5942312304728129,0.8671043502883518,0.430399606083248,0.3832998742630767,0.8888277159391377,2,4,2,2,S5
0.8136505986176186,0.6632450327535337,0.2500080741755976,0.5408812372536017,0.6509403118674879,0.8583956257096612,0.2968551810784913,0.939350061102591,0.6429897167253936,0.4915113673944891,0.4931830751139288,0.3721390381609674,0.8901431850841072,2,4,2,2,S5
0.8204830467655678,0.628470966605204,0.2604925777365233,0.4761706727057667,0.6556695264347954,0.8582359765899549,0.3685775393363206,0.9148754299743608,0.6598745111534114,0.4619593159055708,0.4362604095702921,0.3511105430375474,0.8905871578778274,2,4,2,2,S5
0.8141438636079491,0.6853003772083233,0.2608681185308501,0.4996262017726501,0.6776667227696823,0.8585418990802597,0.6637961290844168,0.8545460301480345,0.6682663596894396,0.6732919568504818,0.4268738303859301,0.384314225440948,0.8904559474396633,2,4,2,2,S5
0.7947937701872962,0.631550821335271,0.2173013698701809,0.5284819236312149,0.6596606091994517,0.8577084465992563,0.2867596500748727,0.7955094877030853,0.6898835642007104,0.7331143647670373,0.4633417900841771,0.3834683573679383,0.8888751510691143,2,4,2,2,S5
0.808904054322442,0.6014822457588345,0.2261381527928292,0.4894026090496313,0.6487943592797943,0.8566669056785643,0.4779985099196867,0.8019435299322428,0.701120889461788,0.7369306800436735,0.4905536774951973,0.3797581297761728,0.8916693459129368,2,4,2,2,S5
0.7939394570690151,0.642233345090807,0.2351187180528959,0.5151642551749732,0.6469241466975201,0.8565614761132767,0.4839550734533229,0.7225975877816436,0.6875253313290579,0.7827266587396234,0.4211730800434011,0.3790286821994353,0.8890998726852704,2,4,2,2,S5
0.7863504005315987,0.6520312999864706,0.2460793232314917,0.526309022349507,0.6444198308268593,0.8566645171519379,0.5354370268355351,0.6322153878401524,0.6576826051540166,0.8516252494655938,0.4046496119649493,0.3902481956059815,0.8902968064897473,2,4,2,2,S5
0.8752269291177817,0.6368565463785124,0.3007526194319788,0.5518714739764541,0.644826934545048,0.8566845807755996,0.3646075190390409,0.5903133016842196,0.667397737137694,0.915348073360487,0.4230091838037473,0.3979256306713609,0.8888696928952375,2,4,2,2,S5
0.712636496804536,0.740601164319887,0.7420160685908594,0.5068999655952259,0.6473598182570769,0.8569673823281608,0.3433433391268463,0.5384924379811478,0.2887120272600054,0.8286047989764453,0.544958865771531,0.389625247721322,0.8885262372381019,2,4,2,0,S5
0.7131837720719346,0.8086773240932643,0.479476117690085,0.5409855119714408,0.6583670193417155,0.8572554386393003,0.2585508255124221,0.5195123242968965,0.055255308853591,0.4796124839038862,0.3189976434790168,0.4212766321860732,0.8885488728112808,2,4,2,0,S5
0.8909205152611969,0.7530791615920439,0.4253505450319466,0.2296994860809645,0.7263116264493625,0.8570401846197325,0.3754204701643359,0.6242791881285326,0.1245783928217746,0.55576450199662,0.5479612823809602,0.4028543451885506,0.8886299463804357,2,4,2,0,S5
0.8246015893679678,0.8381240309453709,0.4290270544859258,0.543644373964345,0.7872762018009096,0.856629835745323,0.6458226437824405,0.5318727458621981,0.0262942002494987,0.5158785388055657,0.4363905460316883,0.4102592140925978,0.8874174748491795,2,4,2,0,S5
0.8677608215369329,0.7245985386209303,0.4204282313938409,0.7709124647045174,0.7800387655712511,0.8561433406420657,0.4482829704586282,0.569861114210414,0.0646678539020625,0.5209420518192759,0.5029531731406414,0.4225247556639309,0.8899843449864925,2,4,2,0,S5
0.8524277140328497,0.7765181518290926,0.4369736342106909,0.538555653418591,0.716427798825046,0.8545334736958966,0.4058445414215797,0.55450994388972,0.0356178967962856,0.4646789509654938,0.4696497761908661,0.3963081350242361,0.8884901244513657,2,4,2,0,S5
0.8488011680901535,0.7467223707767843,0.3734753314200149,0.5803484257844611,0.7045563294805844,0.8544445249643311,0.7407847901477845,0.5438707200977633,0.0267184040552719,0.513542195787285,0.4452569460854341,0.4039964162918253,0.887442843457861,2,4,2,0,S5
0.8491565914412113,0.6034792483010232,0.3638002635779306,0.4359265681038136,0.6996577807908124,0.854112471992734,0.752083343388377,0.6124497527751946,0.0715609309634,0.518966342080346,0.4780982136757646,0.3945452125934527,0.8872697513646789,2,4,2,2,S5
0.8553945794753401,0.6702194612354702,0.3707468255428111,0.4910220755781107,0.6987767097909239,0.8525899773505574,0.1557188168652208,0.6667589142793252,0.1042424626551822,0.5114427778191668,0.3927840234558879,0.3809072361911823,0.8872756503211348,2,4,2,0,S5
0.8537443248040166,0.6601695079790102,0.3647615943157933,0.5072346296035556,0.6915907372124308,0.8514861914259825,0.4969740194578742,0.6722162598572933,0.1069414012528338,0.510726113876092,0.4696950367627224,0.3806655125041058,0.8872677131556771,2,4,2,2,S5
0.8569995841159442,0.6604398326196297,0.3762454973455107,0.5023978320355744,0.6987030867737285,0.850871719066084,0.4911499643456233,0.6832300463154448,0.1173510777019548,0.5180274386507197,0.4271950486446297,0.3770286549757999,0.8883818039353342,2,4,2,0,S5
0.8567643495700024,0.6600969547703642,0.377722724257105,0.4147273677898927,0.7456652914682459,0.8500492538075624,0.516826068896193,0.6832457005859328,0.1124008648686152,0.5052808715841851,0.4865244672862286,0.3885773991614747,0.8854766245081569,2,4,2,0,S5
0.8579058778830673,0.6632513202324333,0.3851987522032147,0.6691646019714608,0.7451043453493419,0.8495295104136656,0.4431084042974991,0.6826178559310992,0.1144677500967635,0.5076623622026859,0.438491042334565,0.4008903851688066,0.8864266131198796,2,4,2,0,S5
0.8563620015743607,0.6549980020516977,0.3771769575560097,0.52293488495225,0.7099367935831931,0.8487305004866144,0.4898548675830754,0.6829824465956545,0.1135978660984342,0.504604153422254,0.4675416467017376,0.3881686396931613,0.8855058087903236,2,4,2,0,S5
0.8584817063781974,0.6591536312699438,0.3878016157622519,0.5276161879189512,0.7050020281103629,0.8483438457963387,0.4338244194061627,0.683279501712988,0.1152345496506205,0.5043593336776541,0.4417746104764231,0.386951751903582,0.8853586399607352,2,4,2,0,S5
0.8577319934563847,0.66068361106532,0.3860222523466736,0.5081360435684027,0.6946732160624935,0.8474031484698118,0.4482304842217779,0.6845006929450341,0.1149771897396105,0.5039173604601362,0.4163908724982755,0.3708816904582026,0.883167757628033,2,4,2,0,S5
0.858217416243998,0.6585273970337325,0.3881923448664311,0.5074015621437613,0.6931447763406413,0.8469207616323515,0.4492937053300349,0.6829578914680193,0.1144110523749639,0.5001800963249549,0.4346450100988366,0.3710126489910213,0.8826895827952927,2,4,2,0,S5
0.7922609965315269,0.4817367704636557,0.6223014538340803,0.5209924039550662,0.7069164224444572,0.8276681860721476,0.574207435354983,0.6644034663538025,0.5904243902008022,0.8717225924914558,0.4772088807452848,0.7690038514892614,0.7664513179859106,0,5,1,2,S5
0.7885382443303417,0.4782367917494774,0.6257085878967286,0.5083650325652233,0.7038573546524984,0.8278051919594358,0.4411062734512264,0.6695245831951422,0.5910994474333884,0.8706598644660093,0.4727339035584167,0.7654966905660696,0.76724007966292,0,4,1,2,S5
0.7926704944836696,0.4744467265237339,0.6191974069954616,0.5277267805180653,0.7053264943250566,0.827934841184715,0.4367317952195749,0.6666357508383163,0.5912709867140895,0.871732646085554,0.4455930614772011,0.7525881989999746,0.76719114034433,0,4,1,2,S5
0.797719575235493,0.4743334375861401,0.6104925783583006,0.5297501126772146,0.7057495128708398,0.8282883431254167,0.530487624043899,0.6734906958552177,0.5928426354623476,0.8671645968612867,0.4817204985791896,0.7537053538977952,0.7676167777684881,0,4,1,2,S5
0.7935511736594424,0.4687803758888003,0.6173849618185812,0.5086151916140209,0.710660053045783,0.8286478163826844,0.3953495718291153,0.6841569837195683,0.5941592969133107,0.8619791232982343,0.4710459209384287,0.7590523863966279,0.7672700301557882,0,4,1,2,S5
0.7912290042905412,0.4659047221335748,0.6205885019590041,0.5908558097313167,0.7165583694661223,0.828415126118744,0.3899447905734763,0.6711404798368048,0.6051223243415795,0.8651322851753673,0.3951573268355343,0.7737600039885375,0.7675423451471628,0,4,1,2,S5
0.8007830862943552,0.4695003708775601,0.6057268450050274,0.5612902037288772,0.71533658703624,0.828237085344015,0.4822206234386194,0.6738510341453787,0.6108936427014265,0.8624572551819731,0.5128645119709551,0.7789745259182715,0.7685403760244421,0,4,1,2,S5
0.7949501912857632,0.4686806931577807,0.6168940885015974,0.531309577971444,0.7194480406349447,0.8279176437930053,0.4403067553263866,0.6836968538342998,0.6090918515788024,0.857111983667311,0.3612680676175182,0.77578734049805,0.7676323703383118,0,4,1,2,S5
0.8131835902168615,0.5309612626729457,0.5877959364647536,0.5625139175176329,0.7259908875308145,0.8275698743162067,0.3933443613831001,0.6651334898879111,0.615518739848302,0.8638196364958666,0.4967251395429879,0.7896444662508091,0.7697678665679905,0,4,1,2,S5
0.8209489379643768,0.5114798275223346,0.5708506694403802,0.5581371674608843,0.7246779103142619,0.8264603559277283,0.3996873332906224,0.6469262160108282,0.5753413779236914,0.8819715962842926,0.5132020738230162,0.787636142902234,0.7687889199673926,0,4,1,2,S5
0.823558099738372,0.5041643676337797,0.5671942425814163,0.4523807670964567,0.7281770474021197,0.8260139880717936,0.5244414348430881,0.6434091482502866,0.5781618988447307,0.8840296839136528,0.4560990552154411,0.7745527993825176,0.7663076788997062,0,4,1,2,S5
0.8215535342589794,0.514633902375029,0.5708571661366102,0.5745611311126974,0.73846831224278,0.8258305492268887,0.5009278899803096,0.6766030820030952,0.5750600142151285,0.8670945594274193,0.4622884836879419,0.766998726516223,0.7667013336608879,0,4,1,2,S5
0.8204215147177994,0.5174017923840617,0.5760364234194117,0.4565483397303245,0.7378178667657798,0.8258212817435784,0.516291145436055,0.6784417723042881,0.5757062024051204,0.8649905039101811,0.4618823651914237,0.7680072167711424,0.7660736472258588,0,4,1,2,S5
0.8209556219489992,0.5251691126692584,0.574855206095245,0.5529361054733204,0.741423677228906,0.825739785215087,0.4167938788901532,0.6828241404987493,0.5750652209114314,0.8655885254649405,0.4394236261442907,0.766215720683552,0.7652184307041704,0,4,1,2,S5
0.8251187943508852,0.5131514212439718,0.5636497239850105,0.5251716459725609,0.7438162932301281,0.8257190528039702,0.4119671774694597,0.6773040906630327,0.5803926303838987,0.8664366864326951,0.4624553296284007,0.7684648002465791,0.7648881519498488,0,4,1,2,S5
0.8277137316015646,0.5014000238655273,0.557117586496602,0.4245476551816342,0.7402463906802167,0.8256241805263709,0.5622933186047349,0.6827142702499034,0.5837119251280051,0.8619450003915282,0.4422966183328665,0.7617623686971604,0.7648924786474424,0,4,1,2,S5
0.8225097807358952,0.5020495009236725,0.5699833586197858,0.6427333454514184,0.7695765691319258,0.8255826201630723,0.4146855725207352,0.6870563184894377,0.5847399593277874,0.8613163598064086,0.4967204289178667,0.7603752585869055,0.7638207047714253,0,4,1,2,S5
0.8306661004706197,0.518655336935478,0.5545302673108155,0.3813142772684881,0.7462374739027435,0.8255209961761122,0.5180230618626753,0.691245821731595,0.5839774304396336,0.8592135873687042,0.4326154976162394,0.7758178389256611,0.7639237378388779,0,4,1,2,S5
0.8292031761560309,0.5428637135240826,0.5577831589216122,0.3501486590977627,0.759136944446182,0.8254261716690453,0.4136682048830576,0.6783342344456482,0.5763063071013643,0.8672149425481408,0.4634136166117807,0.7698334281396859,0.7635703106487953,0,4,1,2,S5
0.8340148736918676,0.5051016686622851,0.5409974185109983,0.5888896674703737,0.7547852245406086,0.8252423028893481,0.5635434374186397,0.6973783779704221,0.5663506748752319,0.8567681111768156,0.4530265560464827,0.7527216381087043,0.7636318325569444,0,4,1,2,S5
0.8365030987824047,0.498486738514334,0.5349177083320207,0.4787821506948285,0.7464694410993168,0.824543849933267,0.5568989346791651,0.6993332202413626,0.574146342693771,0.85439422192544,0.4918983763537109,0.7718355168607526,0.7636645991458471,0,4,1,2,S5
0.8315111568362571,0.5190148042132336,0.5485426834458936,0.5019658656473714,0.7500499294834753,0.8248025273669022,0.4730719421281864,0.7184924705306778,0.5759864923276784,0.8413296411612081,0.4587035656613334,0.7832914554109507,0.7625726028749349,0,4,1,2,S5
0.8283960009525992,0.4968358862821477,0.5641011138696883,0.4793112647224182,0.7539846245763832,0.8248555526580073,0.4043052676915011,0.7065251385527638,0.5748932355135876,0.8462870121098426,0.4156103022616638,0.7791696231888903,0.7623212718924467,0,4,1,2,S5
0.8461320636952795,0.5843424794935523,0.5171901871723521,0.5316489553678172,0.7571971707306179,0.8251030040164986,0.4663512637081317,0.6497347277182558,0.5721745338647671,0.8768302437909135,0.4544889775426525,0.767998206099429,0.7623476983365436,0,4,1,0,S5
0.8404767225752875,0.5696073002368951,0.531675031899765,0.5722990060387287,0.7702252367084214,0.8240977209299947,0.3984250970256119,0.6535330802111193,0.5528740017912709,0.8818687583603643,0.4188076265210336,0.7295531606245039,0.7623077215635577,0,4,1,0,S5
0.8427555367748853,0.5672467347688086,0.52679472791621,0.5109757349838427,0.7663240076119242,0.8234542996273849,0.3824462964470607,0.6565621689701496,0.5523988325456883,0.8797177217934061,0.4776982130264873,0.7193880631361208,0.7630177297462035,0,4,1,0,S5
0.844150932056201,0.5703106811810955,0.5164621154197,0.5572226733513379,0.7655190960446837,0.8233087428147746,0.4937167966980215,0.6561755465794867,0.5526505398340478,0.8800075023487677,0.4321572102715939,0.7190839558025268,0.7649403047246401,0,4,1,0,S5
0.8445956696919276,0.5694504329345824,0.5183192850232748,0.523089851213586,0.76496050249659,0.8231488548424056,0.5244042600176647,0.6524432876644253,0.5519424716638552,0.8802415480652601,0.4521397615016275,0.7195452607430908,0.763807687225622,0,4,1,0,S5
0.8443553782994783,0.5669698057742422,0.5181806562228232,0.5045203560605651,0.766581215501323,0.8230565144030303,0.4341309904007815,0.6521830678729235,0.5513605885979197,0.8818588321576428,0.4684866460843322,0.7164651307543279,0.7625678533533187,0,4,1,0,S5
0.8480145615115652,0.5660154093075043,0.5021968800794754,0.5271662121182656,0.7696632232072915,0.8228636647632179,0.4907195734069077,0.652138839202149,0.5514363086537036,0.8823174910367484,0.4509309011529974,0.7088412378809169,0.7637584792258054,0,4,1,2,S5
0.844672318485648,0.5690222330327465,0.5209892202448064,0.5272391367389561,0.7733331482302743,0.822883346222619,0.4736366459321289,0.6610149016039556,0.5532736809530057,0.8745844176392444,0.4502220718328611,0.7059856654953129,0.7625118129468157,0,4,1,0,S5
0.8441889260748345,0.5688953498200902,0.5194586236962255,0.5201888816235757,0.7765053796605256,0.8229383778760907,0.4507013090087661,0.6426215092866658,0.5470801990489813,0.8904012197573223,0.4610918089707708,0.7040564240610803,0.7623786878118911,0,4,1,0,S5
0.8470785552103554,0.557290031116747,0.5078447229604914,0.5106391267932673,0.7776252323715616,0.8229755433503967,0.5603213131889198,0.6629911524949352,0.5554623523570226,0.870502992051138,0.4607143742832492,0.7004728455555844,0.7623608933750659,0,4,1,2,S5
0.851640926116948,0.6051547497841113,0.4855377593447521,0.5412578857899885,0.7866297444494752,0.8231107817279815,0.4778949206382024,0.574449026739416,0.5327121184101535,0.9529005187417314,0.4037091512513813,0.6928630849214709,0.7623044647409332,0,4,1,0,S5
0.8493993464092036,0.5576484277555291,0.4943579245758054,0.3242533203325373,0.7918328557778891,0.8237762730166187,0.5419221993801623,0.8663446031508473,0.5778131976775791,0.6190684487886324,0.5055844300650432,0.6880056856225666,0.7624129895143621,0,4,1,2,S5
0.8432503031661998,0.5477918722849575,0.5110979329087719,0.4243435016052539,0.8063162804343723,0.8243348538534602,0.4277278500258624,0.5506254947084153,0.7182707180709635,0.677292451138275,0.4402472100439829,0.6872828871353726,0.7623630204548774,0,4,1,2,S5
0.8174459829816967,0.5633816107306782,0.5837255898648452,0.7315866382495395,0.8209012552076067,0.8230954473870402,0.5195893024311776,0.3469199175144594,0.7163013157032944,0.8439234144929197,0.4240223555836918,0.5336137554590109,0.7623807851978017,0,4,1,0,S5
0.7825256071177316,0.4646144007669867,0.6312986978972064,0.5052939439428358,0.8050660874783978,0.8198308091941269,0.3652234566064511,0.5832815979698461,0.5430849747212122,0.9351611078766646,0.3889499087709299,0.7839634194421592,0.7607694688134116,0,4,1,2,S5
0.7822070589480027,0.474114476804554,0.6355614350523693,0.4706550043315626,0.7978089672625869,0.8179113891971813,0.5175909008849148,0.6087533363444154,0.5603713936307109,0.909346950016826,0.4410238498697549,0.7603814652265648,0.7621220600652548,0,4,1,2,S5
0.8123309907459755,0.4886928387122645,0.5839847810906094,0.569601736574574,0.79949008218489,0.8173687159476715,0.3974536894084347,0.6322848372420602,0.5666025491434027,0.894140977401894,0.4501537389668247,0.7504008502673714,0.7607454307076291,0,4,1,2,S5
0.8148473476491793,0.4900476108167968,0.573274957783064,0.5053744815005755,0.7984366653606282,0.817559559225118,0.5584096522092256,0.6127484789521996,0.5711568916900881,0.898623842319733,0.4557806917031195,0.7402070704115389,0.7586421800279604,0,4,1,2,S5
0.7971926972587435,0.5189151425229367,0.6368297460342098,0.6621059471693941,0.8265092101233886,0.8189149047739814,0.5690956493620768,0.4710680172436956,0.5319235607058246,0.9370281005988016,0.4468577500071997,0.692659320759798,0.7545910523084153,0,4,1,0,S5
0.8015083482317632,0.5271831708492319,0.6151762430618957,0.5592329386592672,0.8117337042608992,0.8182574867053413,0.4362080013618837,0.610682030227511,0.5282240893948174,0.8998989605198544,0.5302026502465129,0.699463409836607,0.754677877879198,0,4,1,2,S5
0.7906884385662425,0.544650953481522,0.6268710457710169,0.3158536351742305,0.8073509194654619,0.8179764526624835,0.3118959275071336,0.6473106661433493,0.5496394988936286,0.8864210824456773,0.4824745384849937,0.6968755178163921,0.7535968429689375,0,4,1,0,S5
0.802346959559304,0.5052973452254697,0.6035729938480929,0.8207374114791899,0.8570063387850246,0.817792392800656,0.413245685832938,0.6535126911263066,0.5601076163977518,0.8829688618548651,0.4178445319413459,0.7036697183177019,0.753393970182504,0,4,1,2,S5
0.7968634230005139,0.5150526284926353,0.6166244018430459,0.5043546661631857,0.8042945544016896,0.8192700786833218,0.5188981819401536,0.6213371894720952,0.5602159592768463,0.8960118485512718,0.4668465360916939,0.6941091668632746,0.7538219729917689,0,4,1,2,S5
0.7917243408926998,0.5203921845878847,0.625892231902483,0.5267242654715373,0.8030660300889068,0.8198311913583871,0.4555756991548114,0.6372293433588042,0.5666468975571187,0.8868856000069194,0.4651004159218129,0.7023775963849374,0.755465836837057,0,4,1,2,S5
0.7925706034225973,0.5178518459013106,0.6247154923957259,0.4829846585041261,0.8043493055793632,0.8206034975577552,0.436492472938194,0.6318115871505572,0.5637564767386071,0.8907823110414498,0.4520120114109969,0.704201226048514,0.7550461410866841,0,4,1,2,S5
0.4446699433203724,0.6674093754616561,0.9075021255557296,0.5356794227811478,0.447358121007707,0.8343682421117595,0.4370514649044463,0.778323976424514,0.8450813813352283,0.3221756781940078,0.3035828905346673,0.0760824419439923,0.6163376453706645,0,3,1,0,S5
0.4451872466452591,0.6725217530436409,0.9068837787402316,0.4991413286801071,0.4493130340805664,0.8341703287954988,0.3764408460888863,0.7815139926666506,0.8430265081218788,0.3222192525570474,0.6102295333878051,0.0755931055644187,0.6125378551006284,0,4,1,0,S5
0.4484896889013555,0.6701624218981667,0.9053447283767408,0.5143217552732877,0.4480080855364543,0.8339849791292933,0.4347372047146859,0.780516908913393,0.844464083432864,0.3243476433714978,0.2883438557296751,0.0763800086241468,0.61360632835135,0,4,1,0,S5
0.4582693749074522,0.6717068410001671,0.9002631717427978,0.5370388689493797,0.444698373220799,0.8341356951594167,0.5044314074072599,0.7807489734856632,0.8444114742534086,0.322648788979667,0.4748890450684234,0.0761587471977841,0.6148467397855283,0,4,1,0,S5
